Folder: EC-Lab-Processing/Data_1mg (part 4)

File: 2022_01_27 FeNx 1mg ref309_C05.mpt
EC-Lab ASCII FILE
Nb header lines : 63

Potentio Electrochemical Impedance Spectroscopy

Run on channel : 5 (SN 30436)
User :
CE vs. WE compliance from -10 V to 10 V
Electrode connection : standard
Potential control : Ewe
Ewe ctrl range : min = -10.00 V, max = 10.00 V
Safety Limits :
	Do not start on E overload
Acquisition started on : 01/27/2023 13:24:25.322
Loaded Setting File :  NONE
Saved on :
	File : 2022_01_27 FeNx 1mg ref309_C05.mpr
	Directory : C:\Users\grupogalan\Documents\EC-Lab\Data\Scott\
	Host : 169.254.104.159
Device : VSP (SN 1176)
Address : USB
EC-Lab for windows v11.46 (software)
Internet server v11.40 (firmware)
Command interpretor v11.40 (firmware)
Electrode material :
Initial state :
Electrolyte :
Comments :
Electrode surface area : 0.001 cm²
Characteristic mass : 0.001 g
Equivalent Weight : 0.000 g/eq.
Density : 0.000 g/cm3
Volume (V) : 0.001 cm³
Cycle Definition : Charge/Discharge alternance
Mode                Single sine
E (V)               0.0000
vs.                 Eoc
tE (h:m:s)          0:00:0.0000
record              0
dI                  0.000
unit dI             mA
dt (s)              0.000
fi                  200.000
unit fi             kHz
ff                  100.000
unit ff             mHz
Nd                  6
Points              per decade
spacing             Logarithmic
Va (mV)             10.0
pw                  0.10
Na                  2
corr                0
E range min (V)     -10.000
E range max (V)     10.000
I Range             Auto
Bandwidth           5
nc cycles           0
goto Ns'            0
nr cycles           0
inc. cycle          0

freq/Hz	Re(Z)/Ohm	-Im(Z)/Ohm	|Z|/Ohm	Phase(Z)/deg	time/s	<Ewe>/V	<I>/mA	Cs/µF	Cp/µF	cycle number	I Range	|Ewe|/V	|I|/A	Ns	(Q-Qo)/mA.h	Re(Y)/Ohm-1	Im(Y)/Ohm-1	|Y|/Ohm-1	Phase(Y)/deg	Re(C)/nF	Im(C)/nF	|C|/nF	Phase(C)/deg	Re(M)	Im(M)	|M|	Phase(M)/deg	Re(Permittivity)	Im(Permittivity)	|Permittivity|	Phase(Permittivity)/deg	Re(Resistivity)/Ohm.cm	Im(Resistivity)/Ohm.cm	|Resistivity|/Ohm.cm	Phase(Resistivity)/deg	Re(Conductivity)/mS/cm	Im(Conductivity)/mS/cm	|Conductivity|/mS/cm	Phase(Conductivity)/deg	Tan(Delta)	Loss Angle(Delta)/deg	dq/mA.h
199998	1.81199	-1.31811	2.2407	36.0336	1.97449	-0.22543	-0.184025	-0.603728	-0.20892	1	9	0.00779138	0.0034772	0	-2.27781e-05	0.360901	-0.262534	0.446289	-36.0336	-208.92	287.199	355.149	-126.034	0.0000000E+000	0.0000000E+000	0.0000000E+000	126.034	0.0000000E+000	0.0000000E+000	0.0000000E+000	-126.034	0.0000000E+000	0.0000000E+000	0.0000000E+000	36.0336	0.0000000E+000	0.0000000E+000	0.0000000E+000	-36.0336	-1.37469	-36.0336	-2.27781e-05
91291.2	1.42698	-0.21592	1.44322	8.60431	2.81849	-0.225342	-0.179161	-8.07417	-0.180725	1	9	0.00947429	0.00656467	0	-6.22772e-05	0.685095	-0.103664	0.692894	-8.60431	-180.725	1194.38	1207.97	-98.6043	0.0000000E+000	0.0000000E+000	0.0000000E+000	98.6043	0.0000000E+000	0.0000000E+000	0.0000000E+000	-98.6043	0.0000000E+000	0.0000000E+000	0.0000000E+000	8.60431	0.0000000E+000	0.0000000E+000	0.0000000E+000	-8.60431	-6.60883	-8.60431	-2.78224e-05
41669.8	1.43027	0.0651302	1.43176	-2.60727	3.66249	-0.225174	-0.177	58.6431	0.121351	1	9	0.0108135	0.00755262	0	-0.000122043	0.69772	0.031772	0.698443	2.60727	121.351	2664.9	2667.66	-87.3927	0.0000000E+000	0.0000000E+000	0.0000000E+000	87.3927	0.0000000E+000	0.0000000E+000	0.0000000E+000	-87.3927	0.0000000E+000	0.0000000E+000	0.0000000E+000	-2.60727	0.0000000E+000	0.0000000E+000	0.0000000E+000	2.60727	21.9602	2.60727	-4.70001e-05
19020.9	1.46963	0.251987	1.49108	-9.72948	4.64348	-0.225159	-0.164477	33.2055	0.948342	1	9	0.0105298	0.00706184	0	-0.000180314	0.661009	0.113338	0.670655	9.72948	948.342	5530.89	5611.61	-80.2705	0.0000000E+000	0.0000000E+000	0.0000000E+000	80.2705	0.0000000E+000	0.0000000E+000	0.0000000E+000	-80.2705	0.0000000E+000	0.0000000E+000	0.0000000E+000	-9.72948	0.0000000E+000	0.0000000E+000	0.0000000E+000	9.72948	5.83217	9.72948	-3.10874e-05
8683.37	1.57438	0.607766	1.68762	-21.1083	5.233	-0.225233	-0.190007	30.1575	3.91129	1	9	0.0104333	0.00618229	0	-0.000208295	0.552792	0.213397	0.592551	21.1083	3911.29	10132	10860.7	-68.8917	0.0000000E+000	0.0000000E+000	0.0000000E+000	68.8917	0.0000000E+000	0.0000000E+000	0.0000000E+000	-68.8917	0.0000000E+000	0.0000000E+000	0.0000000E+000	-21.1083	0.0000000E+000	0.0000000E+000	0.0000000E+000	21.1083	2.59044	21.1083	-1.40163e-05
3961.2	1.72555	1.09532	2.04383	-32.4059	6.11294	-0.225217	-0.150781	36.682	10.5352	1	9	0.00961059	0.00470224	0	-0.000248903	0.413083	0.26221	0.489277	32.4059	10535.2	16597	19658.4	-57.5941	0.0000000E+000	0.0000000E+000	0.0000000E+000	57.5941	0.0000000E+000	0.0000000E+000	0.0000000E+000	-57.5941	0.0000000E+000	0.0000000E+000	0.0000000E+000	-32.4059	0.0000000E+000	0.0000000E+000	0.0000000E+000	32.4059	1.57539	32.4059	-1.91451e-05
1808.26	2.0174	2.14314	2.94329	-46.731	7.03695	-0.225208	-0.153035	41.0684	21.7742	1	9	0.0092983	0.00315915	0	-0.000285141	0.232877	0.247391	0.339756	46.731	21774.2	20496.7	29903.7	-43.269	0.0000000E+000	0.0000000E+000	0.0000000E+000	43.269	0.0000000E+000	0.0000000E+000	0.0000000E+000	-43.269	0.0000000E+000	0.0000000E+000	0.0000000E+000	-46.731	0.0000000E+000	0.0000000E+000	0.0000000E+000	46.731	0.941331	46.731	-1.87234e-05
825.264	2.66468	4.0182	4.82146	-56.4496	8.21068	-0.225371	-0.0197208	47.9949	33.3351	1	10	0.00926597	0.00192182	0	-0.000301237	0.114627	0.172852	0.207406	56.4496	33335.1	22106.3	39999	-33.5504	0.0000000E+000	0.0000000E+000	0.0000000E+000	33.5504	0.0000000E+000	0.0000000E+000	0.0000000E+000	-33.5504	0.0000000E+000	0.0000000E+000	0.0000000E+000	-56.4496	0.0000000E+000	0.0000000E+000	0.0000000E+000	56.4496	0.663152	56.4496	-9.52942e-07
377.051	4.28531	7.38608	8.53921	-59.8782	9.13367	-0.225234	-0.0189136	57.1486	42.7562	1	10	0.00918489	0.00107561	0	-0.000305341	0.0587689	0.101293	0.117107	59.8782	42756.2	24806.6	49431.3	-30.1218	0.0000000E+000	0.0000000E+000	0.0000000E+000	30.1218	0.0000000E+000	0.0000000E+000	0.0000000E+000	-30.1218	0.0000000E+000	0.0000000E+000	0.0000000E+000	-59.8782	0.0000000E+000	0.0000000E+000	0.0000000E+000	59.8782	0.580187	59.8782	-1.69783e-06
172.037	7.31152	13.1974	15.0874	-61.0129	10.0524	-0.225345	-0.0187049	70.099	53.6363	1	10	0.0091877	0.000608966	0	-0.000309902	0.0321204	0.0579776	0.0662806	61.0129	53636.3	29715.3	61317.6	-28.9871	0.0000000E+000	0.0000000E+000	0.0000000E+000	28.9871	0.0000000E+000	0.0000000E+000	0.0000000E+000	-28.9871	0.0000000E+000	0.0000000E+000	0.0000000E+000	-61.0129	0.0000000E+000	0.0000000E+000	0.0000000E+000	61.0129	0.554014	61.0129	-2.49208e-06
78.5176	12.5382	22.6974	25.9303	-61.0834	11.2346	-0.22513	-0.00127547	89.3053	68.4251	1	11	0.00915885	0.000353211	0	-0.000313525	0.0186476	0.0337569	0.038565	61.0834	68425.1	37798.5	78171.1	-28.9166	0.0000000E+000	0.0000000E+000	0.0000000E+000	28.9166	0.0000000E+000	0.0000000E+000	0.0000000E+000	-28.9166	0.0000000E+000	0.0000000E+000	0.0000000E+000	-61.0834	0.0000000E+000	0.0000000E+000	0.0000000E+000	61.0834	0.552408	61.0834	-1.25027e-06
35.8372	22.2102	39.2398	45.0894	-60.4896	12.1631	-0.225211	-0.00144473	113.177	85.7164	1	11	0.0092636	0.000205449	0	-0.0003138	0.0109245	0.0193009	0.0221781	60.4896	85716.4	48516.6	98494.5	-29.5104	0.0000000E+000	0.0000000E+000	0.0000000E+000	29.5104	0.0000000E+000	0.0000000E+000	0.0000000E+000	-29.5104	0.0000000E+000	0.0000000E+000	0.0000000E+000	-60.4896	0.0000000E+000	0.0000000E+000	0.0000000E+000	60.4896	0.566013	60.4896	-2.78111e-07
16.367	37.2428	64.5706	74.5412	-60.0247	13.27	-0.225162	-0.000740853	150.597	113.004	1	11	0.010239	0.00013736	0	-0.000313888	0.00670269	0.011621	0.0134154	60.0247	113004	65178	130453	-29.9753	0.0000000E+000	0.0000000E+000	0.0000000E+000	29.9753	0.0000000E+000	0.0000000E+000	0.0000000E+000	-29.9753	0.0000000E+000	0.0000000E+000	0.0000000E+000	-60.0247	0.0000000E+000	0.0000000E+000	0.0000000E+000	60.0247	0.576776	60.0247	-1.53619e-07
7.46893	64.7076	109.695	127.358	-59.4642	14.2096	-0.225066	0.00131428	194.256	144.11	1	12	0.0104063	8.17089e-05	0	-0.000313398	0.00398935	0.00676292	0.00785188	59.4642	144110	85008.8	167315	-30.5358	0.0000000E+000	0.0000000E+000	0.0000000E+000	30.5358	0.0000000E+000	0.0000000E+000	0.0000000E+000	-30.5358	0.0000000E+000	0.0000000E+000	0.0000000E+000	-59.4642	0.0000000E+000	0.0000000E+000	0.0000000E+000	59.4642	0.589886	59.4642	3.01182e-07
3.4086	106.483	179.441	208.656	-59.3145	15.3292	-0.225212	0.00126199	260.21	192.443	1	12	0.010165	4.87164e-05	0	-0.000313326	0.00244577	0.00412152	0.00479257	59.3145	192443	114198	223776	-30.6855	0.0000000E+000	0.0000000E+000	0.0000000E+000	30.6855	0.0000000E+000	0.0000000E+000	0.0000000E+000	-30.6855	0.0000000E+000	0.0000000E+000	0.0000000E+000	-59.3145	0.0000000E+000	0.0000000E+000	0.0000000E+000	59.3145	0.593414	59.3145	-4.45467e-07
2.30321	140.418	235.717	274.371	-59.2176	16.2781	-0.225188	0.00147746	293.153	216.371	1	12	0.0102152	3.72312e-05	0	-0.000313351	0.00186528	0.00313122	0.00364469	59.2176	216371	128893	251853	-30.7824	0.0000000E+000	0.0000000E+000	0.0000000E+000	30.7824	0.0000000E+000	0.0000000E+000	0.0000000E+000	-30.7824	0.0000000E+000	0.0000000E+000	0.0000000E+000	-59.2176	0.0000000E+000	0.0000000E+000	0.0000000E+000	59.2176	0.595703	59.2176	-2.51597e-08

File: 2022_01_27 FeNx 1mg ref309_set1_01_CV_C02.mpt
EC-Lab ASCII FILE
Nb header lines : 57

Cyclic Voltammetry

Run on channel : 2 (SN 12477)
User :
CE vs. WE compliance from -10 V to 10 V
Electrode connection : standard
Potential control : Ewe
Ewe ctrl range : min = -2.50 V, max = 2.50 V
Safety Limits :
	Do not start on E overload
Acquisition started on : 01/27/2023 13:25:48.279
Loaded Setting File :  C:\Users\grupogalan\Documents\EC-Lab\Data\Scott\_cyclic_pause_tafel.mps
Saved on :
	File : 2022_01_27 FeNx 1mg ref309_set1_01_CV_C02.mpr
	Directory : C:\Users\grupogalan\Documents\EC-Lab\Data\Scott\
	Host : 169.254.104.159
Device : VSP (SN 1176)
Address : USB
EC-Lab for windows v11.46 (software)
Internet server v11.40 (firmware)
Command interpretor v11.40 (firmware)
Electrode material :
Initial state :
Electrolyte :
Comments :
Electrode surface area : 0.000 cm²
Characteristic mass : 0.001 g
Equivalent Weight : 0.000 g/eq.
Density : 0.000 g/cm3
Volume (V) : 0.001 cm³
Cycle Definition : Charge/Discharge alternance
Ei (V)              0.000
vs.                 Eoc
dE/dt               10.000
dE/dt unit          mV/s
E1 (V)              1.000
vs.                 Ref
Step percent        50
N                   10
E range min (V)     -2.500
E range max (V)     2.500
I Range             Auto
I Range min         Unset
I Range max         Unset
I Range init        Unset
Bandwidth           5
E2 (V)              0.000
vs.                 Ref
nc cycles           2
Reverse Scan        1
Ef (V)              0.000
vs.                 Eoc

mode	ox/red	error	control changes	counter inc.	time/s	control/V	Ewe/V	<I>/mA	cycle number	(Q-Qo)/C	I Range	P/W
2	1	0	0	0	0.000000000000000E+000	-0.263092	-0.266182	0.00528933	1	0.0000000E+000	14	-1.40792e-06
2	1	0	0	0	4.7862	-0.215231	-0.214519	0.00930693	1	4.0197e-05	13	-1.99651e-06
2	1	0	0	0	9.5874	-0.16722	-0.167433	0.0117428	1	9.93511e-05	13	-1.96613e-06
2	1	0	1	0	14.3884	-0.119209	-0.119301	0.0142644	1	0.000170003	13	-1.70176e-06
2	1	0	1	0	19.1896	-0.0711975	-0.0703418	0.0171957	1	0.000254018	13	-1.20958e-06
2	1	0	1	0	23.9908	-0.0231862	-0.0236054	0.0199691	1	0.000351498	13	-4.7138e-07
2	1	0	0	0	28.7918	0.0248251	0.0249988	0.0232056	1	0.000463267	13	5.8011e-07
2	1	0	0	0	33.593	0.0728364	0.0730577	0.0269729	1	0.000592008	13	1.97058e-06
2	1	0	0	0	38.3942	0.120848	0.120477	0.0309892	1	0.000739681	13	3.73349e-06
2	1	0	1	0	43.1952	0.168859	0.168004	0.0339003	1	0.000903328	13	5.69537e-06
2	1	0	1	0	47.9964	0.21687	0.216477	0.0364005	1	0.00107903	13	7.87989e-06
2	1	0	1	0	52.7975	0.264882	0.263815	0.0387532	1	0.0012653	13	1.02237e-05
2	1	0	0	0	57.5986	0.312893	0.311614	0.0412669	1	0.00146238	13	1.28594e-05
2	1	0	0	0	62.3998	0.360904	0.359705	0.0441466	1	0.00167151	13	1.58797e-05
2	1	0	1	0	67.2008	0.408915	0.40804	0.0473582	1	0.00189447	13	1.9324e-05
2	1	0	1	0	72.002	0.456926	0.455373	0.0512155	1	0.0021337	13	2.33221e-05
2	1	0	1	0	76.8032	0.504938	0.50443	0.0560096	1	0.00239291	13	2.82529e-05
2	1	0	0	0	81.6042	0.552949	0.552313	0.0620246	1	0.00267771	13	3.4257e-05
2	1	0	0	0	86.4054	0.60096	0.601766	0.0705333	1	0.0029972	13	4.24445e-05
2	1	0	0	0	91.2066	0.648972	0.648999	0.084357	1	0.00336882	13	5.47476e-05
2	1	0	1	0	96.0376	0.697283	0.697043	0.134254	1	0.00386522	12	9.35806e-05
2	1	0	1	0	100.839	0.745294	0.745611	0.424695	1	0.00504346	12	0.000316657
2	1	0	1	0	105.67	0.793605	0.793202	1.50984	1	0.00924124	11	0.00119761
2	1	0	0	0	110.471	0.841617	0.841605	4.09966	1	0.0220169	11	0.0034503
2	1	0	0	0	115.272	0.889628	0.89023	8.6752	1	0.0518072	11	0.00772293
2	1	0	0	0	120.103	0.937939	0.938086	16.3163	1	0.110579	10	0.0153061
2	1	0	1	0	124.904	0.98595	0.985285	26.2944	1	0.21357	10	0.0259074
2	1	0	1	0	129.566	0.967446	0.967654	20.8697	1	0.331927	10	0.0201947
2	1	0	1	0	134.367	0.919435	0.920567	12.3657	1	0.410295	10	0.0113835
2	1	0	0	0	139.168	0.871424	0.872131	6.6935	1	0.455095	10	0.00583761
2	1	0	0	0	143.999	0.823112	0.823755	3.07911	1	0.47792	11	0.00253643
2	1	0	0	0	148.801	0.775101	0.774706	1.13645	1	0.487469	11	0.000880415
2	1	0	1	0	153.632	0.72679	0.726492	0.301462	1	0.490601	12	0.00021901
2	1	0	1	0	158.433	0.678779	0.678509	0.0542177	1	0.49131	12	3.67872e-05
2	0	0	1	0	163.234	0.630768	0.629733	0.0126062	1	0.491434	12	7.93857e-06
2	1	0	0	0	168.035	0.582756	0.582477	0.00690552	1	0.491475	12	4.02231e-06
2	1	0	0	0	172.836	0.534745	0.533896	0.00466742	1	0.491501	12	2.49192e-06
2	1	0	1	0	177.637	0.486733	0.486264	0.00354339	1	0.491519	12	1.72302e-06
2	1	0	1	0	182.438	0.438722	0.438158	0.00238999	1	0.491531	12	1.0472e-06
2	1	0	1	0	187.24	0.390711	0.389348	0.00161495	1	0.49154	12	6.2878e-07
2	1	0	0	0	192.041	0.3427	0.340983	0.00101852	1	0.491545	12	3.47298e-07
2	1	0	0	0	196.842	0.294688	0.293383	0.000537745	1	0.491547	12	1.57765e-07
2	1	0	0	0	201.643	0.246677	0.24749	3.23611e-05	1	0.491547	12	8.00905e-09
2	0	0	1	0	206.444	0.198666	0.198102	-0.000579077	1	0.491544	12	-1.14716e-07
2	0	0	1	0	211.245	0.150655	0.14987	-0.00117776	1	0.491539	12	-1.76511e-07
2	1	0	1	0	216.046	0.102643	0.10204	-0.00177269	1	0.49153	12	-1.80886e-07
2	0	0	0	0	220.847	0.0546321	0.0532853	-0.00279729	1	0.491517	12	-1.49054e-07
2	1	0	0	0	225.649	0.00662084	0.00615023	-0.00396702	1	0.4915	12	-2.43981e-08
2	1	0	0	1	230.27	0.0395286	0.0398251	0.000721256	2	0.491495	12	2.87241e-08
2	1	0	0	1	235.071	0.0875398	0.0875383	0.0020334	2	0.491503	12	1.78e-07
2	1	0	1	1	239.872	0.135551	0.135069	0.00290698	2	0.491516	12	3.92644e-07
2	1	0	1	1	244.674	0.183562	0.182094	0.00361364	2	0.491533	12	6.58021e-07
2	0	0	1	1	249.475	0.231574	0.231235	0.00412691	2	0.491552	12	9.54286e-07
2	0	0	0	1	254.276	0.279585	0.279241	0.00471532	2	0.491575	12	1.31671e-06
2	0	0	0	1	259.077	0.327596	0.32615	0.00528115	2	0.4916	12	1.72245e-06
2	0	0	1	1	263.878	0.375607	0.37457	0.0058986	2	0.491627	12	2.20944e-06
2	0	0	1	1	268.679	0.423619	0.42247	0.00663678	2	0.491658	12	2.80384e-06
2	1	0	1	1	273.48	0.47163	0.471723	0.00757516	2	0.491693	12	3.57337e-06
2	1	0	0	1	278.281	0.519641	0.518518	0.0089633	2	0.491733	12	4.64763e-06
2	0	0	0	1	283.083	0.567652	0.567398	0.0109962	2	0.491782	12	6.23924e-06
2	0	0	0	1	287.884	0.615664	0.614365	0.0144475	2	0.491843	12	8.87601e-06
2	1	0	1	1	292.685	0.663675	0.663314	0.0222661	2	0.491929	12	1.47694e-05
2	1	0	1	1	297.486	0.711686	0.710148	0.0734872	2	0.492119	12	5.21868e-05
2	1	0	1	1	302.287	0.759697	0.759809	0.390938	2	0.493037	12	0.000297039
2	1	0	0	1	307.118	0.808009	0.806969	1.62362	2	0.497386	11	0.00131021
2	1	0	0	1	311.919	0.85602	0.85522	4.34554	2	0.511073	11	0.00371639
2	1	0	0	1	316.721	0.904031	0.903117	8.48949	2	0.541489	11	0.007667
2	1	0	1	1	321.552	0.952343	0.950844	13.287	2	0.593949	10	0.0126339
2	1	0	1	1	326.308	0.999904	0.998448	17.9225	2	0.668335	10	0.0178947
2	1	0	1	1	330.974	0.953443	0.953067	11.1255	2	0.734941	10	0.0106033
2	1	0	0	1	335.775	0.905432	0.905638	6.5479	2	0.776585	10	0.00593002
2	1	0	0	1	340.607	0.85712	0.856769	3.51673	2	0.800375	11	0.00301302
2	1	0	0	1	345.408	0.809109	0.809987	1.63962	2	0.812354	11	0.00132807
2	1	0	1	1	350.209	0.761098	0.76146	0.604543	2	0.817453	11	0.000460335
2	1	0	1	1	355.04	0.712787	0.713851	0.152284	2	0.819097	12	0.000108708
2	0	0	1	1	359.841	0.664775	0.663758	0.0241262	2	0.819438	12	1.6014e-05
2	0	0	0	1	364.642	0.616764	0.617354	0.00545601	2	0.819491	12	3.36829e-06
2	1	0	0	1	369.443	0.568753	0.569694	0.00305372	2	0.819508	12	1.73969e-06
2	1	0	1	1	374.244	0.520741	0.520815	0.0020221	2	0.819518	12	1.05314e-06
[...]
2	1	0	0	1	422.256	0.0406288	0.039787	-0.00268732	2	0.819496	12	-1.0692e-07
2	1	0	0	0	426.877	0.00552058	0.00506301	-0.00168734	3	0.819482	12	-8.54304e-09
2	0	0	0	0	431.679	0.0535318	0.0524972	0.000814896	3	0.819483	12	4.27798e-08
2	0	0	1	0	436.48	0.101543	0.101351	0.00153813	3	0.81949	12	1.55891e-07
2	0	0	1	0	441.281	0.149554	0.149823	0.00193069	3	0.8195	12	2.89262e-07
2	1	0	1	0	446.082	0.197566	0.197581	0.00242972	3	0.819512	12	4.80068e-07
2	1	0	0	0	450.883	0.245577	0.245977	0.00241276	3	0.819526	12	5.93484e-07
2	1	0	0	0	455.684	0.293588	0.29364	0.00313499	3	0.819541	12	9.20559e-07
2	1	0	1	0	460.485	0.341599	0.340682	0.00356958	3	0.819558	12	1.21609e-06
2	1	0	1	0	465.286	0.389611	0.389522	0.0038205	3	0.819577	12	1.48817e-06
2	1	0	1	0	470.088	0.437622	0.43888	0.00443225	3	0.819598	12	1.94523e-06
2	1	0	0	0	474.889	0.485633	0.48553	0.00528838	3	0.819623	12	2.56767e-06
2	1	0	0	0	479.69	0.533644	0.531895	0.00628403	3	0.819651	12	3.34244e-06
2	1	0	0	0	484.491	0.581656	0.582292	0.00812523	3	0.819687	12	4.73125e-06
2	1	0	1	0	489.292	0.629667	0.630149	0.0113649	3	0.819735	12	7.1616e-06
2	1	0	1	0	494.093	0.677678	0.678286	0.0216551	3	0.819809	12	1.46883e-05
2	1	0	1	0	498.894	0.725689	0.724859	0.104719	3	0.820056	12	7.59068e-05
2	1	0	0	0	503.695	0.773701	0.773548	0.503755	3	0.82131	12	0.000389679
2	1	0	0	0	508.527	0.822012	0.821537	1.61217	3	0.826092	11	0.00132446
2	1	0	0	0	513.328	0.870023	0.8702	3.60556	3	0.838259	11	0.00313755
2	1	0	1	0	518.129	0.918035	0.918414	6.48977	3	0.862185	11	0.0059603
2	1	0	1	0	522.93	0.966046	0.966633	10.0959	3	0.901772	11	0.009759
2	1	0	1	0	527.582	0.987451	0.987401	11.5328	3	0.95623	10	0.0113875
2	1	0	0	0	532.383	0.93944	0.93802	7.08908	3	1.00024	10	0.00664969
2	1	0	0	0	537.214	0.891128	0.890923	4.08611	3	1.02675	11	0.0036404
2	1	0	0	0	542.015	0.843117	0.843034	2.15774	3	1.04138	11	0.00181905
2	1	0	1	0	546.816	0.795106	0.794809	0.983573	3	1.04867	11	0.000781752
2	1	0	1	0	551.647	0.746795	0.746995	0.346686	3	1.05169	12	0.000258973
2	1	0	1	0	556.448	0.698783	0.6989	0.080718	3	1.0526	12	5.64138e-05
2	1	0	0	0	561.249	0.650772	0.650043	0.0122457	3	1.05278	12	7.96027e-06
2	1	0	0	0	566.051	0.602761	0.602307	0.00326038	3	1.05281	12	1.96375e-06
2	0	0	1	0	570.852	0.554749	0.554636	0.00198081	3	1.05282	12	1.09863e-06
2	1	0	1	0	575.653	0.506738	0.505405	0.00135947	3	1.05282	12	6.87081e-07
2	0	0	1	0	580.454	0.458727	0.457763	0.0011766	3	1.05283	12	5.38605e-07
2	1	0	0	0	585.255	0.410716	0.41015	0.000753858	3	1.05283	12	3.09195e-07
2	0	0	0	0	590.056	0.362704	0.361967	0.000356929	3	1.05283	12	1.29197e-07
2	0	0	0	0	594.857	0.314693	0.313761	1.10531e-05	3	1.05283	12	3.46802e-09
2	0	0	1	0	599.658	0.266682	0.266629	-0.000238002	3	1.05283	12	-6.34582e-08
2	1	0	1	0	604.46	0.218671	0.218454	-0.000331289	3	1.05283	12	-7.23715e-08
2	0	0	1	0	609.261	0.170659	0.170096	-0.000898594	3	1.05282	12	-1.52848e-07
2	0	0	0	0	614.062	0.122648	0.122883	-0.0012406	3	1.05282	12	-1.52448e-07
2	1	0	0	0	618.863	0.0746368	0.0730832	-0.00171286	3	1.05281	12	-1.25181e-07
2	0	0	1	0	623.664	0.0266258	0.0263177	-0.00243572	3	1.0528	12	-6.41026e-08
2	1	0	0	1	628.286	-0.0195853	-0.0201306	-0.00306771	3	1.05278	12	6.17548e-08
2	0	0	0	1	633.087	-0.0675966	-0.0670239	-0.00433528	3	1.05276	12	2.90567e-07
2	0	0	1	1	637.888	-0.115608	-0.115827	-0.00575016	3	1.05274	12	6.66027e-07
2	1	0	1	1	642.689	-0.163619	-0.163864	-0.00794053	3	1.0527	12	1.30117e-06
2	0	0	1	1	647.49	-0.21163	-0.211119	-0.0112945	3	1.05266	12	2.38447e-06
2	0	0	0	1	652.291	-0.259642	-0.26066	-0.0155817	3	1.05259	12	4.06153e-06
2	0	0	0	1	652.633	-0.263092	-0.265323	-0.00932405	3	1.05259	12	2.47388e-06