Folder: EC-Lab-Processing/Data_1mg (part 5)

File: 2022_01_27 FeNx 1mg ref309_set1_03_CP_C02.mpt
EC-Lab ASCII FILE
Nb header lines : 53

Chronopotentiometry

Run on channel : 2 (SN 12477)
User :
CE vs. WE compliance from -10 V to 10 V
Electrode connection : standard
Potential control : Ewe
Ewe ctrl range : min = -2.50 V, max = 2.50 V
Safety Limits :
	Do not start on E overload
Acquisition started on : 01/27/2023 13:25:48.279
Loaded Setting File :  C:\Users\grupogalan\Documents\EC-Lab\Data\Scott\_cyclic_pause_tafel.mps
Saved on :
	File : 2022_01_27 FeNx 1mg ref309_set1_03_CP_C02.mpr
	Directory : C:\Users\grupogalan\Documents\EC-Lab\Data\Scott\
	Host : 169.254.104.159
Device : VSP (SN 1176)
Address : USB
EC-Lab for windows v11.46 (software)
Internet server v11.40 (firmware)
Command interpretor v11.40 (firmware)
Electrode material :
Initial state :
Electrolyte :
Comments :
Electrode surface area : 0.000 cm²
Characteristic mass : 0.001 g
Equivalent Weight : 0.000 g/eq.
Density : 0.000 g/cm3
Volume (V) : 0.001 cm³
Cycle Definition : Charge/Discharge alternance
Ns                  0                   1                   2                   3                   4                   5                   6                   7                   8                   9                   10                  11                  12
Is                  10.000              18.000              32.000              56.000              100.000             178.000             316.000             562.000             1.000               1.778               3.162               5.623               10.000
unit Is             µA                  µA                  µA                  µA                  µA                  µA                  µA                  µA                  mA                  mA                  mA                  mA                  mA
vs.                 <None>              <None>              <None>              <None>              <None>              <None>              <None>              <None>              <None>              <None>              <None>              <None>              <None>
ts (h:m:s)          0:03:0.0000         0:03:0.0000         0:03:0.0000         0:03:0.0000         0:03:0.0000         0:03:0.0000         0:03:0.0000         0:03:0.0000         0:03:0.0000         0:03:0.0000         0:03:0.0000         0:03:0.0000         0:03:0.0000
EM (V)              pass                pass                pass                pass                pass                pass                pass                pass                pass                pass                pass                pass                pass
dQM                 500.000             900.000             1.600               2.800               5.000               8.900               15.800              28.100              50.000              88.900              158.100             281.150             500.000
unit dQM            nA.h                nA.h                µA.h                µA.h                µA.h                µA.h                µA.h                µA.h                µA.h                µA.h                µA.h                µA.h                µA.h
record              <Ewe>               <Ewe>               <Ewe>               <Ewe>               <Ewe>               <Ewe>               <Ewe>               <Ewe>               <Ewe>               <Ewe>               <Ewe>               <Ewe>               <Ewe>
dEs (mV)            0.00                0.00                0.00                0.00                0.00                0.00                0.00                0.00                0.00                0.00                0.00                0.00                0.00
dts (s)             1.0000              1.0000              1.0000              1.0000              1.0000              1.0000              1.0000              1.0000              1.0000              1.0000              1.0000              1.0000              1.0000
E range min (V)     -2.500              -2.500              -2.500              -2.500              -2.500              -2.500              -2.500              -2.500              -2.500              -2.500              -2.500              -2.500              -2.500
E range max (V)     2.500               2.500               2.500               2.500               2.500               2.500               2.500               2.500               2.500               2.500               2.500               2.500               2.500
I Range             10 mA               10 mA               10 mA               10 mA               10 mA               10 mA               10 mA               10 mA               10 mA               10 mA               10 mA               10 mA               10 mA
Bandwidth           5                   5                   5                   5                   5                   5                   5                   5                   5                   5                   5                   5                   5
goto Ns'            0                   0                   0                   0                   0                   0                   0                   0                   0                   0                   0                   0                   0
nc cycles           0                   0                   0                   0                   0                   0                   0                   0                   0                   0                   0                   0                   0

mode	ox/red	error	control changes	Ns changes	counter inc.	Ns	time/s	control/mA	<Ewe>/V	I/mA	dQ/C	(Q-Qo)/C	half cycle	Q charge/discharge/mA.h	I Range	Energy charge/W.h	Energy discharge/W.h	Capacitance charge/µF	Capacitance discharge/µF	Q discharge/mA.h	Q charge/mA.h	Capacity/mA.h	Efficiency/%	cycle number	P/W
1	1	0	1	0	0	0	671.507	0.01	-0.0195756	0.0108168	1.08592e-05	1.08592e-05	0	3.01643e-06	11	5.90485e-11	0.000000000000000E+000	0.000000000000000E+000	0.000000000000000E+000	0.000000000000000E+000	3.01643e-06	3.01643e-06	0.0000000E+000	0.000000000000000E+000	-2.11745e-07
1	1	0	1	0	0	0	728.507	0.01	0.653077	0.0111349	0.000662701	0.000662701	0	0.000184084	11	9.98941e-08	0.000000000000000E+000	985.206	0.000000000000000E+000	0.000000000000000E+000	0.000184084	0.000184084	0.0000000E+000	0.000000000000000E+000	7.27196e-06
1	1	0	1	0	0	0	785.507	0.01	0.650842	0.0111986	0.00131403	0.00131403	0	0.000365007	11	2.18002e-07	0.000000000000000E+000	1960.01	0.000000000000000E+000	0.000000000000000E+000	0.000365007	0.000365007	0.0000000E+000	0.000000000000000E+000	7.28849e-06
1	1	0	1	0	0	0	842.507	0.01	0.642887	0.0110077	0.00196524	0.00196524	0	0.000545901	11	3.35095e-07	0.000000000000000E+000	2966.58	0.000000000000000E+000	0.000000000000000E+000	0.000545901	0.000545901	0.0000000E+000	0.000000000000000E+000	7.07669e-06
1	1	0	0	0	0	1	898.56	0.018	0.66956	0.0184518	0.000902776	0.00296002	0	0.000822229	11	5.1982e-07	0.000000000000000E+000	4295.27	0.000000000000000E+000	0.000000000000000E+000	0.000822229	0.000822229	0.0000000E+000	0.000000000000000E+000	1.23546e-05
1	1	0	0	0	0	1	955.56	0.018	0.664382	0.01877	0.00197541	0.00403266	0	0.00112018	11	7.18519e-07	0.000000000000000E+000	5896.07	0.000000000000000E+000	0.000000000000000E+000	0.00112018	0.00112018	0.0000000E+000	0.000000000000000E+000	1.24704e-05
[...]
1	1	0	1	0	0	8	2259.56	1	0.835025	1.00076	0.149179	0.379883	0	0.105523	11	8.30797e-05	0.000000000000000E+000	444516	0.000000000000000E+000	0.000000000000000E+000	0.105523	0.105523	0.0000000E+000	0.000000000000000E+000	0.00083566
1	1	0	0	0	0	9	2315.56	1.778	0.876979	1.77826	0.0444672	0.455388	0	0.126497	11	0.000101114	0.000000000000000E+000	507931	0.000000000000000E+000	0.000000000000000E+000	0.126497	0.126497	0.0000000E+000	0.000000000000000E+000	0.0015595
1	1	0	0	0	0	9	2372.56	1.778	0.882999	1.7782	0.145852	0.556773	0	0.154659	11	0.000125891	0.000000000000000E+000	616872	0.000000000000000E+000	0.000000000000000E+000	0.154659	0.154659	0.0000000E+000	0.000000000000000E+000	0.00157015
1	1	0	0	0	0	9	2429.56	1.778	0.889675	1.77896	0.247238	0.658158	0	0.182822	11	0.000150854	0.000000000000000E+000	723847	0.000000000000000E+000	0.000000000000000E+000	0.182822	0.182822	0.0000000E+000	0.000000000000000E+000	0.0015827
1	1	0	1	0	0	10	2485.56	3.162	0.942122	3.16262	0.0474454	0.778531	0	0.216259	11	0.000181336	0.000000000000000E+000	809539	0.000000000000000E+000	0.000000000000000E+000	0.216259	0.216259	0.0000000E+000	0.000000000000000E+000	0.00297957
1	1	0	1	0	0	10	2542.56	3.162	0.949709	3.16293	0.227739	0.958825	0	0.26634	11	0.00022872	0.000000000000000E+000	989209	0.000000000000000E+000	0.000000000000000E+000	0.26634	0.26634	0.0000000E+000	0.000000000000000E+000	0.00300387
1	1	0	1	0	0	10	2599.56	3.162	0.955522	3.16293	0.408033	1.13912	0	0.316422	11	0.000276447	0.000000000000000E+000	1.16821e+06	0.000000000000000E+000	0.000000000000000E+000	0.316422	0.316422	0.0000000E+000	0.000000000000000E+000	0.00302226
1	1	0	0	0	0	11	2655.56	5.623	1.00924	5.62446	0.0281194	1.32856	0	0.369043	11	0.000327237	0.000000000000000E+000	1.29135e+06	0.000000000000000E+000	0.000000000000000E+000	0.369043	0.369043	0.0000000E+000	0.000000000000000E+000	0.00567643
1	1	0	0	0	0	11	2712.56	5.623	1.00479	5.62383	0.348686	1.64912	0	0.458089	11	0.000416758	0.000000000000000E+000	1.60989e+06	0.000000000000000E+000	0.000000000000000E+000	0.458089	0.458089	0.0000000E+000	0.000000000000000E+000	0.00565078
1	1	0	0	0	0	11	2769.56	5.623	1.00654	5.62357	0.669252	1.96969	0	0.547136	11	0.000506308	0.000000000000000E+000	1.91956e+06	0.000000000000000E+000	0.000000000000000E+000	0.547136	0.547136	0.0000000E+000	0.000000000000000E+000	0.00566036
1	1	0	0	0	0	11	2826.56	5.623	1.0104	5.62281	0.989819	2.29025	0	0.636182	11	0.00059612	0.000000000000000E+000	2.22359e+06	0.000000000000000E+000	0.000000000000000E+000	0.636182	0.636182	0.0000000E+000	0.000000000000000E+000	0.00568131
1	1	0	1	0	0	12	2882.56	10	1.0759	10.001	0.520071	2.83282	0	0.786895	11	0.000757416	0.000000000000000E+000	2.58593e+06	0.000000000000000E+000	0.000000000000000E+000	0.786895	0.786895	0.0000000E+000	0.000000000000000E+000	0.0107601
1	1	0	1	0	0	12	2939.56	10	1.08826	10.0021	1.09015	3.4029	0	0.945251	11	0.000928686	0.000000000000000E+000	3.07167e+06	0.000000000000000E+000	0.000000000000000E+000	0.945251	0.945251	0.0000000E+000	0.000000000000000E+000	0.0108848
1	1	0	1	0	0	12	2996.56	10	1.10518	10.0015	1.66023	3.97298	0	1.10361	11	0.00110233	0.000000000000000E+000	3.5323e+06	0.000000000000000E+000	0.000000000000000E+000	1.10361	1.10361	0.0000000E+000	0.000000000000000E+000	0.0110535
1	1	0	1	0	0	12	3010.56	10	1.11148	10.0019	1.80025	4.113	0	1.1425	11	0.00114542	0.000000000000000E+000	3.63642e+06	0.000000000000000E+000	0.000000000000000E+000	1.1425	1.1425	0.0000000E+000	0.000000000000000E+000	0.011117

File: 2022_01_27 FeNx 1mg ref309_set1_bulk_C02.mpt
EC-Lab ASCII FILE
Nb header lines : 52

Chronopotentiometry

Run on channel : 2 (SN 12477)
User :
CE vs. WE compliance from -10 V to 10 V
Electrode connection : standard
Potential control : Ewe
Ewe ctrl range : min = -2.50 V, max = 2.50 V
Safety Limits :
	Do not start on E overload
Acquisition started on : 01/27/2023 14:29:04.806
Loaded Setting File :  NONE
Saved on :
	File : 2022_01_27 FeNx 1mg ref309_set1_bulk_C02.mpr
	Directory : C:\Users\grupogalan\Documents\EC-Lab\Data\Scott\
	Host : 169.254.104.159
Device : VSP (SN 1176)
Address : USB
EC-Lab for windows v11.46 (software)
Internet server v11.40 (firmware)
Command interpretor v11.40 (firmware)
Electrode material :
Initial state :
Electrolyte :
Comments :
Electrode surface area : 0.000 cm²
Characteristic mass : 0.001 g
Equivalent Weight : 0.000 g/eq.
Density : 0.000 g/cm3
Volume (V) : 0.001 cm³
Cycle Definition : Charge/Discharge alternance
Is                  10.000
unit Is             mA
vs.                 <None>
ts (h:m:s)          2:00:0.0000
EM (V)              pass
dQM                 20.000
unit dQM            mA.h
record              <Ewe>
dEs (mV)            0.00
dts (s)             1.0000
E range min (V)     -2.500
E range max (V)     2.500
I Range             10 mA
Bandwidth           5
goto Ns'            0
nc cycles           0

mode	ox/red	error	control changes	Ns changes	counter inc.	Ns	time/s	control/mA	<Ewe>/V	I/mA	dQ/C	(Q-Qo)/C	half cycle	Q charge/discharge/mA.h	I Range	Energy charge/W.h	Energy discharge/W.h	Capacitance charge/µF	Capacitance discharge/µF	Q discharge/mA.h	Q charge/mA.h	Capacity/mA.h	Efficiency/%	cycle number	P/W
1	1	0	0	0	0	0	1	10	1.1104	10.0017	0.0094993	0.0094993	0	0.0026387	11	2.93e-06	0.000000000000000E+000	0.000000000000000E+000	0.000000000000000E+000	0.000000000000000E+000	0.0026387	0.0026387	0.0000000E+000	0.000000000000000E+000	0.0111059
1	1	0	0	0	0	0	161	10	1.26956	10.001	1.60973	1.60973	0	0.447147	11	0.00052457	0.000000000000000E+000	1.01135e+07	0.000000000000000E+000	0.000000000000000E+000	0.447147	0.447147	0.0000000E+000	0.000000000000000E+000	0.012697
1	1	0	0	0	0	0	321	10	1.57271	10.0021	3.20996	3.20996	0	0.891655	11	0.00115351	0.000000000000000E+000	6.94319e+06	0.000000000000000E+000	0.000000000000000E+000	0.891655	0.891655	0.0000000E+000	0.000000000000000E+000	0.0157304
1	1	0	0	0	0	0	481	10	2.00401	10.0024	4.81019	4.81019	0	1.33616	11	0.0019425	0.000000000000000E+000	5.38288e+06	0.000000000000000E+000	0.000000000000000E+000	1.33616	1.33616	0.0000000E+000	0.000000000000000E+000	0.020045
1	1	0	0	0	0	0	641	10	2.55421	10.0014	6.41042	6.41042	0	1.78067	11	0.00295179	0.000000000000000E+000	4.43992e+06	0.000000000000000E+000	0.000000000000000E+000	1.78067	1.78067	0.0000000E+000	0.000000000000000E+000	0.0255456
1	1	0	0	0	0	0	801	10	3.23516	10.0016	8.01064	8.01064	0	2.22518	11	0.00423307	0.000000000000000E+000	3.77014e+06	0.000000000000000E+000	0.000000000000000E+000	2.22518	2.22518	0.0000000E+000	0.000000000000000E+000	0.0323566
1	1	0	0	0	0	0	961	10	3.99571	10.0024	9.61088	9.61088	0	2.66969	11	0.00584285	0.000000000000000E+000	3.33096e+06	0.000000000000000E+000	0.000000000000000E+000	2.66969	2.66969	0.0000000E+000	0.000000000000000E+000	0.0399667
1	1	0	0	0	0	0	1121	10	4.61195	10.001	11.2111	11.2111	0	3.1142	11	0.00776485	0.000000000000000E+000	3.20176e+06	0.000000000000000E+000	0.000000000000000E+000	3.1142	3.1142	0.0000000E+000	0.000000000000000E+000	0.046124
1	1	0	0	0	0	0	1281	10	4.986	10.0012	12.8113	12.8113	0	3.5587	11	0.00990716	0.000000000000000E+000	3.30564e+06	0.000000000000000E+000	0.000000000000000E+000	3.5587	3.5587	0.0000000E+000	0.000000000000000E+000	0.0498658
1	1	0	0	0	0	0	1441	10	5.19444	10.0013	14.4116	14.4116	0	4.00321	11	0.0121738	0.000000000000000E+000	3.52875e+06	0.000000000000000E+000	0.000000000000000E+000	4.00321	4.00321	0.0000000E+000	0.000000000000000E+000	0.0519512
1	1	0	0	0	0	0	1601	10	5.33039	10.0009	16.0118	16.0118	0	4.44772	11	0.0145148	0.000000000000000E+000	3.79427e+06	0.000000000000000E+000	0.000000000000000E+000	4.44772	4.44772	0.0000000E+000	0.000000000000000E+000	0.0533085
1	1	0	0	0	0	0	1761	10	5.43313	10.0016	17.612	17.612	0	4.89223	11	0.0169081	0.000000000000000E+000	4.07428e+06	0.000000000000000E+000	0.000000000000000E+000	4.89223	4.89223	0.0000000E+000	0.000000000000000E+000	0.0543401
1	1	0	0	0	0	0	1921	10	5.5162	10.0011	19.2123	19.2123	0	5.33674	11	0.0193427	0.000000000000000E+000	4.36067e+06	0.000000000000000E+000	0.000000000000000E+000	5.33674	5.33674	0.0000000E+000	0.000000000000000E+000	0.0551681
1	1	0	0	0	0	0	2081	10	5.58958	10.0017	20.8125	20.8125	0	5.78124	11	0.0218117	0.000000000000000E+000	4.64649e+06	0.000000000000000E+000	0.000000000000000E+000	5.78124	5.78124	0.0000000E+000	0.000000000000000E+000	0.0559056
1	1	0	0	0	0	0	2241	10	5.65265	10.0014	22.4127	22.4127	0	6.22575	11	0.0243104	0.000000000000000E+000	4.93427e+06	0.000000000000000E+000	0.000000000000000E+000	6.22575	6.22575	0.0000000E+000	0.000000000000000E+000	0.0565342
1	1	0	0	0	0	0	2401	10	5.70934	10.0015	24.0129	24.0129	0	6.67026	11	0.0268357	0.000000000000000E+000	5.22141e+06	0.000000000000000E+000	0.000000000000000E+000	6.67026	6.67026	0.0000000E+000	0.000000000000000E+000	0.0571019
1	1	0	0	0	0	0	2561	10	5.76183	10.0013	25.6132	25.6132	0	7.11477	11	0.0293854	0.000000000000000E+000	5.50651e+06	0.000000000000000E+000	0.000000000000000E+000	7.11477	7.11477	0.0000000E+000	0.000000000000000E+000	0.0576258
1	1	0	0	0	0	0	2721	10	5.81239	10.0021	27.2134	27.2134	0	7.55927	11	0.0319579	0.000000000000000E+000	5.78763e+06	0.000000000000000E+000	0.000000000000000E+000	7.55927	7.55927	0.0000000E+000	0.000000000000000E+000	0.0581359
1	1	0	0	0	0	0	2881	10	5.86012	10.001	28.8136	28.8136	0	8.00378	11	0.0345523	0.000000000000000E+000	6.06638e+06	0.000000000000000E+000	0.000000000000000E+000	8.00378	8.00378	0.0000000E+000	0.000000000000000E+000	0.058607
1	1	0	0	0	0	0	3041	10	5.90733	10.0014	30.4138	30.4138	0	8.44829	11	0.0371677	0.000000000000000E+000	6.34027e+06	0.000000000000000E+000	0.000000000000000E+000	8.44829	8.44829	0.0000000E+000	0.000000000000000E+000	0.0590817
1	1	0	0	0	0	0	3201	10	5.95273	10.0014	32.0141	32.0141	0	8.8928	11	0.0398037	0.000000000000000E+000	6.61129e+06	0.000000000000000E+000	0.000000000000000E+000	8.8928	8.8928	0.0000000E+000	0.000000000000000E+000	0.0595354
1	1	0	0	0	0	0	3361	10	5.99868	10.0016	33.6143	33.6143	0	9.33731	11	0.04246	0.000000000000000E+000	6.8765e+06	0.000000000000000E+000	0.000000000000000E+000	9.33731	9.33731	0.0000000E+000	0.000000000000000E+000	0.0599962
1	1	0	0	0	0	0	3521	10	6.04301	10.0016	35.2145	35.2145	0	9.78182	11	0.0451363	0.000000000000000E+000	7.13913e+06	0.000000000000000E+000	0.000000000000000E+000	9.78182	9.78182	0.0000000E+000	0.000000000000000E+000	0.0604399
1	1	0	0	0	0	0	3681	10	6.08751	10.0009	36.8148	36.8148	0	10.2263	11	0.0478326	0.000000000000000E+000	7.39681e+06	0.000000000000000E+000	0.000000000000000E+000	10.2263	10.2263	0.0000000E+000	0.000000000000000E+000	0.0608807
1	1	0	0	0	0	0	3841	10	6.13341	10.001	38.415	38.415	0	10.6708	11	0.0505489	0.000000000000000E+000	7.6478e+06	0.000000000000000E+000	0.000000000000000E+000	10.6708	10.6708	0.0000000E+000	0.000000000000000E+000	0.0613401
[...]
1	1	0	0	0	0	0	4801	10	6.40858	10.0021	48.0164	48.0164	0	13.3379	11	0.0672697	0.000000000000000E+000	9.06281e+06	0.000000000000000E+000	0.000000000000000E+000	13.3379	13.3379	0.0000000E+000	0.000000000000000E+000	0.0640994
1	1	0	0	0	0	0	4961	10	6.45612	10.0016	49.6166	49.6166	0	13.7824	11	0.0701288	0.000000000000000E+000	9.28156e+06	0.000000000000000E+000	0.000000000000000E+000	13.7824	13.7824	0.0000000E+000	0.000000000000000E+000	0.0645712
1	1	0	0	0	0	0	5121	10	6.50344	10.0017	51.2168	51.2168	0	14.2269	11	0.0730091	0.000000000000000E+000	9.49682e+06	0.000000000000000E+000	0.000000000000000E+000	14.2269	14.2269	0.0000000E+000	0.000000000000000E+000	0.0650458
1	1	0	0	0	0	0	5281	10	6.5526	10.0017	52.817	52.817	0	14.6714	11	0.0759109	0.000000000000000E+000	9.70508e+06	0.000000000000000E+000	0.000000000000000E+000	14.6714	14.6714	0.0000000E+000	0.000000000000000E+000	0.0655371
1	1	0	0	0	0	0	5441	10	6.60267	10.0016	54.4173	54.4173	0	15.1159	11	0.0788346	0.000000000000000E+000	9.90797e+06	0.000000000000000E+000	0.000000000000000E+000	15.1159	15.1159	0.0000000E+000	0.000000000000000E+000	0.0660374
1	1	0	0	0	0	0	5601	10	6.65353	10.0016	56.0175	56.0175	0	15.5604	11	0.0817807	0.000000000000000E+000	1.01058e+07	0.000000000000000E+000	0.000000000000000E+000	15.5604	15.5604	0.0000000E+000	0.000000000000000E+000	0.0665456
1	1	0	0	0	0	0	5761	10	6.70479	10.0009	57.6177	57.6177	0	16.0049	11	0.0847498	0.000000000000000E+000	1.02992e+07	0.000000000000000E+000	0.000000000000000E+000	16.0049	16.0049	0.0000000E+000	0.000000000000000E+000	0.0670541
1	1	0	0	0	0	0	5921	10	6.75668	10.001	59.218	59.218	0	16.4494	11	0.0877418	0.000000000000000E+000	1.0488e+07	0.000000000000000E+000	0.000000000000000E+000	16.4494	16.4494	0.0000000E+000	0.000000000000000E+000	0.0675735
1	1	0	0	0	0	0	6081	10	6.80957	10.0007	60.8182	60.8182	0	16.8939	11	0.0907569	0.000000000000000E+000	1.06714e+07	0.000000000000000E+000	0.000000000000000E+000	16.8939	16.8939	0.0000000E+000	0.000000000000000E+000	0.0681007
1	1	0	0	0	0	0	6241	10	6.86245	10.0019	62.4184	62.4184	0	17.3384	11	0.0937955	0.000000000000000E+000	1.08515e+07	0.000000000000000E+000	0.000000000000000E+000	17.3384	17.3384	0.0000000E+000	0.000000000000000E+000	0.0686378
1	1	0	0	0	0	0	6401	10	6.91604	10.0013	64.0186	64.0186	0	17.783	11	0.096858	0.000000000000000E+000	1.1027e+07	0.000000000000000E+000	0.000000000000000E+000	17.783	17.783	0.0000000E+000	0.000000000000000E+000	0.0691694
1	1	0	0	0	0	0	6561	10	6.97033	10.0021	65.6189	65.6189	0	18.2275	11	0.0999444	0.000000000000000E+000	1.11979e+07	0.000000000000000E+000	0.000000000000000E+000	18.2275	18.2275	0.0000000E+000	0.000000000000000E+000	0.0697181
1	1	0	0	0	0	0	6721	10	7.02373	10.0016	67.2191	67.2191	0	18.672	11	0.103055	0.000000000000000E+000	1.13674e+07	0.000000000000000E+000	0.000000000000000E+000	18.672	18.672	0.0000000E+000	0.000000000000000E+000	0.0702487
1	1	0	0	0	0	0	6881	10	7.07932	10.0014	68.8193	68.8193	0	19.1165	11	0.106189	0.000000000000000E+000	1.15296e+07	0.000000000000000E+000	0.000000000000000E+000	19.1165	19.1165	0.0000000E+000	0.000000000000000E+000	0.0708029
1	1	0	0	0	0	0	7041	10	7.13275	10.0019	70.4195	70.4195	0	19.561	11	0.109348	0.000000000000000E+000	1.1693e+07	0.000000000000000E+000	0.000000000000000E+000	19.561	19.561	0.0000000E+000	0.000000000000000E+000	0.0713409
1	1	0	0	0	0	0	7200.05	10	7.18733	10.0012	72.0103	72.0103	0	20.0029	11	0.112512	0.000000000000000E+000	1.18498e+07	0.000000000000000E+000	0.000000000000000E+000	20.0029	20.0029	0.0000000E+000	0.000000000000000E+000	0.0718818