Folder: EC-Lab-Processing/Data (part 6)

File: 2025-02-10 exp 2 potential step 0 v_C05.mpt
EC-Lab ASCII FILE
Nb header lines : 62

Chronoamperometry / Chronocoulometry

Run on channel : 5 (SN 39658)
User :
CE vs. WE compliance from -10 V to 10 V
Electrode connection : standard
Potential control : Ewe
Ewe ctrl range : min = -2.50 V, max = 2.50 V
Safety Limits :
	Do not start on E overload
Acquisition started on : 02/10/2025 12:39:34.140
Loaded Setting File :  NONE
Saved on :
	File : 2025-02-10 exp2 potential step 0 v_C05.mpr
	Directory : C:\Users\thefo\OneDrive\Documents\EC-Lab\Data\CHEM 451\
	Host : 172.24.113.132
Device : VSP (SN 1910)
Address : USB
EC-Lab for windows v11.46 (software)
Internet server v11.40 (firmware)
Command interpretor v11.40 (firmware)
Electrode material :
Initial state :
Electrolyte :
Comments :
Current amplifier : VSPB-4A
Electrode surface area : 0.001 cm²
Characteristic mass : 0.001 g
Equivalent Weight : 0.000 g/eq.
Density : 0.000 g/cm3
Volume (V) : 0.001 cm³
Cycle Definition : Charge/Discharge alternance
Ei (V)              0.000
vs.                 Ref
ti (h:m:s)          0:00:30.0000
Imax                pass
unit Imax           mA
Imin                pass
unit Imin           mA
dQM                 0.000
unit dQM            mA.h
record              <I>
dI                  5.000
unit dI             µA
dQ                  0.000
unit dQ             mA.h
dt (s)              0.1000
dta (s)             0.1000
E range min (V)     -2.500
E range max (V)     2.500
I Range             Auto
I Range min         Unset
I Range max         Unset
I Range init        Unset
Bandwidth           4
goto Ns'            0
nc cycles           0

mode	ox/red	error	control changes	Ns changes	counter inc.	Ns	time/s	control/V	Ewe/V	<I>/mA	dQ/C	(Q-Qo)/C	I Range	Q charge/discharge/mA.h	half cycle	Energy charge/W.h	Energy discharge/W.h	Capacitance charge/µF	Capacitance discharge/µF	Q discharge/mA.h	Q charge/mA.h	Capacity/mA.h	Efficiency/%	cycle number	P/W
2	0	0	1	0	0	0	0.1	1.57199e-05	0.000151523	-0.11956	-1.10073e-05	-1.10073e-05	12	-3.05758e-06	0	0.000000000000000E+000	4.63293e-13	0.000000000000000E+000	0.000000000000000E+000	3.05758e-06	0.000000000000000E+000	3.05758e-06	0.0000000E+000	0.000000000000000E+000	-1.81161e-08
2	0	0	1	0	0	0	0.9	1.57199e-05	0.000247006	-0.0348063	-5.28521e-05	-5.28521e-05	13	-1.46811e-05	0	0.000000000000000E+000	2.2331e-12	0.000000000000000E+000	553525	1.46811e-05	0.000000000000000E+000	1.46811e-05	0.0000000E+000	0.000000000000000E+000	-8.59735e-09
2	0	0	1	0	0	0	1.7	1.57199e-05	0.000132426	-0.0239581	-7.51024e-05	-7.51024e-05	13	-2.08618e-05	0	0.000000000000000E+000	3.17883e-12	0.000000000000000E+000	3.93277e+06	2.08618e-05	0.000000000000000E+000	2.08618e-05	0.0000000E+000	0.000000000000000E+000	-3.17269e-09
2	0	0	1	0	0	0	2.5	1.57199e-05	0.000189716	-0.0191126	-9.18921e-05	-9.18921e-05	13	-2.55256e-05	0	0.000000000000000E+000	3.94985e-12	0.000000000000000E+000	2.40599e+06	2.55256e-05	0.000000000000000E+000	2.55256e-05	0.0000000E+000	0.000000000000000E+000	-3.62596e-09
2	0	0	1	0	0	0	3.3	1.57199e-05	0.00011333	-0.016251	-0.000105813	-0.000105813	13	-2.93924e-05	0	0.000000000000000E+000	4.78667e-12	0.000000000000000E+000	2.77046e+06	2.93924e-05	0.000000000000000E+000	2.93924e-05	0.0000000E+000	0.000000000000000E+000	-1.84172e-09
2	0	0	1	0	0	0	4.1	1.57199e-05	0.00011333	-0.0143308	-0.000117906	-0.000117906	13	-3.27517e-05	0	0.000000000000000E+000	5.34373e-12	0.000000000000000E+000	3.08711e+06	3.27517e-05	0.000000000000000E+000	3.27517e-05	0.0000000E+000	0.000000000000000E+000	-1.62411e-09
2	0	0	1	0	0	0	4.9	1.57199e-05	0.000170619	-0.0129386	-0.000128717	-0.000128717	13	-3.57547e-05	0	0.000000000000000E+000	5.78211e-12	0.000000000000000E+000	6.74033e+06	3.57547e-05	0.000000000000000E+000	3.57547e-05	0.0000000E+000	0.000000000000000E+000	-2.20759e-09
2	0	0	1	0	0	0	5.7	1.57199e-05	0.000151523	-0.0118791	-0.000138572	-0.000138572	13	-3.84921e-05	0	0.000000000000000E+000	6.22937e-12	0.000000000000000E+000	0.000000000000000E+000	3.84921e-05	0.000000000000000E+000	3.84921e-05	0.0000000E+000	0.000000000000000E+000	-1.79996e-09
2	0	0	1	0	0	0	6.5	1.57199e-05	1.78471e-05	-0.0110478	-0.000147689	-0.000147689	13	-4.10248e-05	0	0.000000000000000E+000	6.65211e-12	0.000000000000000E+000	1.10483e+06	4.10248e-05	0.000000000000000E+000	4.10248e-05	0.0000000E+000	0.000000000000000E+000	-1.97171e-10
2	0	0	1	0	0	0	7.3	1.57199e-05	0.000189716	-0.0103673	-0.000156212	-0.000156212	13	-4.33922e-05	0	0.000000000000000E+000	7.10188e-12	0.000000000000000E+000	4.09006e+06	4.33922e-05	0.000000000000000E+000	4.33922e-05	0.0000000E+000	0.000000000000000E+000	-1.96684e-09
2	0	0	1	0	0	0	8.1	1.57199e-05	0.000189716	-0.0098056	-0.000164247	-0.000164247	13	-4.56241e-05	0	0.000000000000000E+000	7.52616e-12	0.000000000000000E+000	4.30043e+06	4.56241e-05	0.000000000000000E+000	4.56241e-05	0.0000000E+000	0.000000000000000E+000	-1.86028e-09
2	0	0	1	0	0	0	8.9	1.57199e-05	0.000170619	-0.00932705	-0.000171872	-0.000171872	13	-4.77422e-05	0	0.000000000000000E+000	7.87732e-12	0.000000000000000E+000	9.00016e+06	4.77422e-05	0.000000000000000E+000	4.77422e-05	0.0000000E+000	0.000000000000000E+000	-1.59138e-09
2	0	0	1	0	0	0	9.7	1.57199e-05	0.000247006	-0.00892667	-0.000179151	-0.000179151	13	-4.97642e-05	0	0.000000000000000E+000	8.27555e-12	0.000000000000000E+000	1.87627e+06	4.97642e-05	0.000000000000000E+000	4.97642e-05	0.0000000E+000	0.000000000000000E+000	-2.20494e-09
2	0	0	1	0	0	0	10.5	1.57199e-05	0.000170619	-0.00857954	-0.000186133	-0.000186133	13	-5.17037e-05	0	0.000000000000000E+000	8.69016e-12	0.000000000000000E+000	9.74697e+06	5.17037e-05	0.000000000000000E+000	5.17037e-05	0.0000000E+000	0.000000000000000E+000	-1.46384e-09
2	0	0	1	0	0	0	11.3	1.57199e-05	0.000189716	-0.00827491	-0.000192857	-0.000192857	13	-5.35714e-05	0	0.000000000000000E+000	9.03015e-12	0.000000000000000E+000	5.04953e+06	5.35714e-05	0.000000000000000E+000	5.35714e-05	0.0000000E+000	0.000000000000000E+000	-1.56988e-09
2	0	0	1	0	0	0	12.1	1.57199e-05	0.000170619	-0.00800967	-0.000199356	-0.000199356	13	-5.53765e-05	0	0.000000000000000E+000	9.33854e-12	0.000000000000000E+000	1.04394e+07	5.53765e-05	0.000000000000000E+000	5.53765e-05	0.0000000E+000	0.000000000000000E+000	-1.3666e-09
2	0	0	1	0	0	0	12.9	1.57199e-05	0.000151523	-0.00777526	-0.000205656	-0.000205656	13	-5.71266e-05	0	0.000000000000000E+000	9.63295e-12	0.000000000000000E+000	0.000000000000000E+000	5.71266e-05	0.000000000000000E+000	5.71266e-05	0.0000000E+000	0.000000000000000E+000	-1.17813e-09
2	0	0	1	0	0	0	13.7	1.57199e-05	9.42333e-05	-0.00756889	-0.000211781	-0.000211781	13	-5.88282e-05	0	0.000000000000000E+000	9.89912e-12	0.000000000000000E+000	3.69668e+06	5.88282e-05	0.000000000000000E+000	5.88282e-05	0.0000000E+000	0.000000000000000E+000	-7.13241e-10
2	0	0	1	0	0	0	14.5	1.57199e-05	0.000227909	-0.00738559	-0.000217753	-0.000217753	13	-6.04868e-05	0	0.000000000000000E+000	1.0249e-11	0.000000000000000E+000	2.85068e+06	6.04868e-05	0.000000000000000E+000	6.04868e-05	0.0000000E+000	0.000000000000000E+000	-1.68324e-09
2	0	0	1	0	0	0	15.3	1.57199e-05	0.000132426	-0.00722399	-0.000223587	-0.000223587	13	-6.21075e-05	0	0.000000000000000E+000	1.04983e-11	0.000000000000000E+000	1.17082e+07	6.21075e-05	0.000000000000000E+000	6.21075e-05	0.0000000E+000	0.000000000000000E+000	-9.56647e-10
[...]
2	0	0	1	0	0	0	20.9	1.57199e-05	0.000132426	-0.00654196	-0.000261799	-0.000261799	13	-7.27219e-05	0	0.000000000000000E+000	1.25009e-11	0.000000000000000E+000	1.37092e+07	7.27219e-05	0.000000000000000E+000	7.27219e-05	0.0000000E+000	0.000000000000000E+000	-8.66328e-10
2	0	0	1	0	0	0	21.7	1.57199e-05	0.000247006	-0.00648951	-0.000267008	-0.000267008	13	-7.41689e-05	0	0.000000000000000E+000	1.27995e-11	0.000000000000000E+000	2.7964e+06	7.41689e-05	0.000000000000000E+000	7.41689e-05	0.0000000E+000	0.000000000000000E+000	-1.60295e-09
2	0	0	1	0	0	0	22.5	1.57199e-05	0.000189716	-0.00644404	-0.000272179	-0.000272179	13	-7.56052e-05	0	0.000000000000000E+000	1.3e-11	0.000000000000000E+000	7.12639e+06	7.56052e-05	0.000000000000000E+000	7.56052e-05	0.0000000E+000	0.000000000000000E+000	-1.22254e-09
2	0	0	1	0	0	0	23.3	1.57199e-05	0.000151523	-0.00640191	-0.000277315	-0.000277315	13	-7.70321e-05	0	0.000000000000000E+000	1.32333e-11	0.000000000000000E+000	0.000000000000000E+000	7.70321e-05	0.000000000000000E+000	7.70321e-05	0.0000000E+000	0.000000000000000E+000	-9.70037e-10
2	0	0	1	0	0	0	24.1	1.57199e-05	0.000170619	-0.006367	-0.000282421	-0.000282421	13	-7.84504e-05	0	0.000000000000000E+000	1.34617e-11	0.000000000000000E+000	1.47891e+07	7.84504e-05	0.000000000000000E+000	7.84504e-05	0.0000000E+000	0.000000000000000E+000	-1.08633e-09
2	0	0	1	0	0	0	24.9	1.57199e-05	5.60402e-05	-0.00633463	-0.0002875	-0.0002875	13	-7.98612e-05	0	0.000000000000000E+000	1.37395e-11	0.000000000000000E+000	3.01102e+06	7.98612e-05	0.000000000000000E+000	7.98612e-05	0.0000000E+000	0.000000000000000E+000	-3.54994e-10
2	0	0	1	0	0	0	25.7	1.57199e-05	0.000247006	-0.00630163	-0.000292553	-0.000292553	13	-8.12647e-05	0	0.000000000000000E+000	1.4046e-11	0.000000000000000E+000	3.06394e+06	8.12647e-05	0.000000000000000E+000	8.12647e-05	0.0000000E+000	0.000000000000000E+000	-1.55654e-09
2	0	0	1	0	0	0	26.5	1.57199e-05	0.000208813	-0.00626939	-0.00029758	-0.00029758	13	-8.2661e-05	0	0.000000000000000E+000	1.43275e-11	0.000000000000000E+000	5.1943e+06	8.2661e-05	0.000000000000000E+000	8.2661e-05	0.0000000E+000	0.000000000000000E+000	-1.30913e-09
2	0	0	1	0	0	0	27.3	1.57199e-05	0.000208813	-0.00623755	-0.00030258	-0.00030258	13	-8.40501e-05	0	0.000000000000000E+000	1.46143e-11	0.000000000000000E+000	5.28159e+06	8.40501e-05	0.000000000000000E+000	8.40501e-05	0.0000000E+000	0.000000000000000E+000	-1.30248e-09
2	0	0	1	0	0	0	28.1	1.57199e-05	0.000170619	-0.00620575	-0.000307555	-0.000307555	13	-8.54321e-05	0	0.000000000000000E+000	1.48865e-11	0.000000000000000E+000	1.61053e+07	8.54321e-05	0.000000000000000E+000	8.54321e-05	0.0000000E+000	0.000000000000000E+000	-1.05882e-09
2	0	0	1	0	0	0	28.9	1.57199e-05	0.000285199	-0.00617071	-0.000312504	-0.000312504	13	-8.68067e-05	0	0.000000000000000E+000	1.51472e-11	0.000000000000000E+000	2.33778e+06	8.68067e-05	0.000000000000000E+000	8.68067e-05	0.0000000E+000	0.000000000000000E+000	-1.75988e-09
2	0	0	1	0	0	0	29.7	1.57199e-05	0.000247006	-0.00613396	-0.000317424	-0.000317424	13	-8.81734e-05	0	0.000000000000000E+000	1.5377e-11	0.000000000000000E+000	3.32442e+06	8.81734e-05	0.000000000000000E+000	8.81734e-05	0.0000000E+000	0.000000000000000E+000	-1.51512e-09
2	0	0	1	0	0	0	29.9998	1.57199e-05	0.000170619	-0.00612354	-0.000319261	-0.000319261	13	-8.86837e-05	0	0.000000000000000E+000	1.54738e-11	0.000000000000000E+000	1.67183e+07	8.86837e-05	0.000000000000000E+000	8.86837e-05	0.0000000E+000	0.000000000000000E+000	-1.0448e-09

File: 2025-02-10 exp 3 potential step 0,1 V_C05.mpt
EC-Lab ASCII FILE
Nb header lines : 62

Chronoamperometry / Chronocoulometry

Run on channel : 5 (SN 39658)
User :
CE vs. WE compliance from -10 V to 10 V
Electrode connection : standard
Potential control : Ewe
Ewe ctrl range : min = -2.50 V, max = 2.50 V
Safety Limits :
	Do not start on E overload
Acquisition started on : 02/10/2025 12:43:52.323
Loaded Setting File :  NONE
Saved on :
	File : 2025-02-10 exp2 potential step 0,1 V_C05.mpr
	Directory : C:\Users\thefo\OneDrive\Documents\EC-Lab\Data\CHEM 451\
	Host : 172.24.113.132
Device : VSP (SN 1910)
Address : USB
EC-Lab for windows v11.46 (software)
Internet server v11.40 (firmware)
Command interpretor v11.40 (firmware)
Electrode material :
Initial state :
Electrolyte :
Comments :
Current amplifier : VSPB-4A
Electrode surface area : 0.001 cm²
Characteristic mass : 0.001 g
Equivalent Weight : 0.000 g/eq.
Density : 0.000 g/cm3
Volume (V) : 0.001 cm³
Cycle Definition : Charge/Discharge alternance
Ei (V)              0.100
vs.                 Ref
ti (h:m:s)          0:00:30.0000
Imax                pass
unit Imax           mA
Imin                pass
unit Imin           mA
dQM                 0.000
unit dQM            mA.h
record              <I>
dI                  5.000
unit dI             µA
dQ                  0.000
unit dQ             mA.h
dt (s)              0.1000
dta (s)             0.1000
E range min (V)     -2.500
E range max (V)     2.500
I Range             Auto
I Range min         Unset
I Range max         Unset
I Range init        Unset
Bandwidth           4
goto Ns'            0
nc cycles           0

mode	ox/red	error	control changes	Ns changes	counter inc.	Ns	time/s	control/V	Ewe/V	<I>/mA	dQ/C	(Q-Qo)/C	I Range	Q charge/discharge/mA.h	half cycle	Energy charge/W.h	Energy discharge/W.h	Capacitance charge/µF	Capacitance discharge/µF	Q discharge/mA.h	Q charge/mA.h	Capacity/mA.h	Efficiency/%	cycle number	P/W
2	0	0	0	0	0	0	0.1	0.100017	0.100217	-0.0778911	-7.20025e-06	-7.20025e-06	12	-2.00007e-06	0	0.000000000000000E+000	2.00442e-10	0.000000000000000E+000	0.000000000000000E+000	2.00007e-06	0.000000000000000E+000	2.00007e-06	0.0000000E+000	0.000000000000000E+000	-7.80604e-06
2	0	0	0	0	0	0	0.9	0.100017	0.100122	-0.0235379	-3.50404e-05	-3.50404e-05	13	-9.73343e-06	0	0.000000000000000E+000	9.75484e-10	0.000000000000000E+000	366995	9.73343e-06	0.000000000000000E+000	9.73343e-06	0.0000000E+000	0.000000000000000E+000	-2.35666e-06
2	0	0	0	0	0	0	1.7	0.100017	0.100084	-0.0164815	-5.02299e-05	-5.02299e-05	13	-1.39528e-05	0	0.000000000000000E+000	1.3982e-09	0.000000000000000E+000	375773	1.39528e-05	0.000000000000000E+000	1.39528e-05	0.0000000E+000	0.000000000000000E+000	-1.64953e-06
2	0	0	0	0	0	0	2.5	0.100017	0.100122	-0.0133603	-6.18833e-05	-6.18833e-05	13	-1.71898e-05	0	0.000000000000000E+000	1.72254e-09	0.000000000000000E+000	648134	1.71898e-05	0.000000000000000E+000	1.71898e-05	0.0000000E+000	0.000000000000000E+000	-1.33766e-06
2	0	0	0	0	0	0	3.3	0.100017	0.100217	-0.0115541	-7.17049e-05	-7.17049e-05	13	-1.9918e-05	0	0.000000000000000E+000	1.99587e-09	0.000000000000000E+000	0.000000000000000E+000	1.9918e-05	0.000000000000000E+000	1.9918e-05	0.0000000E+000	0.000000000000000E+000	-1.15792e-06
2	0	0	0	0	0	0	4.1	0.100017	0.100294	-0.0103527	-8.03809e-05	-8.03809e-05	13	-2.2328e-05	0	0.000000000000000E+000	2.23747e-09	0.000000000000000E+000	1.05223e+06	2.2328e-05	0.000000000000000E+000	2.2328e-05	0.0000000E+000	0.000000000000000E+000	-1.03831e-06
2	0	0	0	0	0	0	4.9	0.100017	0.100332	-0.00947724	-8.82529e-05	-8.82529e-05	13	-2.45147e-05	0	0.000000000000000E+000	2.45661e-09	0.000000000000000E+000	770213	2.45147e-05	0.000000000000000E+000	2.45147e-05	0.0000000E+000	0.000000000000000E+000	-9.50871e-07
2	0	0	0	0	0	0	5.7	0.100017	0.10016	-0.00881486	-9.55258e-05	-9.55258e-05	13	-2.65349e-05	0	0.000000000000000E+000	2.65915e-09	0.000000000000000E+000	1.66748e+06	2.65349e-05	0.000000000000000E+000	2.65349e-05	0.0000000E+000	0.000000000000000E+000	-8.82897e-07
2	0	0	0	0	0	0	6.5	0.100017	0.100179	-0.00828952	-0.000102334	-0.000102334	13	-2.8426e-05	0	0.000000000000000E+000	2.84873e-09	0.000000000000000E+000	2.67947e+06	2.8426e-05	0.000000000000000E+000	2.8426e-05	0.0000000E+000	0.000000000000000E+000	-8.30438e-07
2	0	0	0	0	0	0	7.3	0.100017	0.100179	-0.00786078	-0.000108766	-0.000108766	13	-3.02129e-05	0	0.000000000000000E+000	3.02784e-09	0.000000000000000E+000	2.84791e+06	3.02129e-05	0.000000000000000E+000	3.02129e-05	0.0000000E+000	0.000000000000000E+000	-7.87486e-07
2	0	0	0	0	0	0	8.1	0.100017	0.100122	-0.00750097	-0.00011489	-0.00011489	13	-3.19138e-05	0	0.000000000000000E+000	3.19822e-09	0.000000000000000E+000	1.20329e+06	3.19138e-05	0.000000000000000E+000	3.19138e-05	0.0000000E+000	0.000000000000000E+000	-7.51012e-07
2	0	0	0	0	0	0	8.9	0.100017	0.100198	-0.00719435	-0.000120748	-0.000120748	13	-3.35412e-05	0	0.000000000000000E+000	3.36131e-09	0.000000000000000E+000	6.32327e+06	3.35412e-05	0.000000000000000E+000	3.35412e-05	0.0000000E+000	0.000000000000000E+000	-7.20862e-07
2	0	0	0	0	0	0	9.7	0.100017	0.100313	-0.00692564	-0.00012638	-0.00012638	13	-3.51055e-05	0	0.000000000000000E+000	3.51811e-09	0.000000000000000E+000	1.32353e+06	3.51055e-05	0.000000000000000E+000	3.51055e-05	0.0000000E+000	0.000000000000000E+000	-6.94731e-07
2	0	0	0	0	0	0	10.5	0.100017	0.100294	-0.0066919	-0.000131813	-0.000131813	13	-3.66148e-05	0	0.000000000000000E+000	3.66937e-09	0.000000000000000E+000	1.72551e+06	3.66148e-05	0.000000000000000E+000	3.66148e-05	0.0000000E+000	0.000000000000000E+000	-6.71156e-07
2	0	0	0	0	0	0	11.3	0.100017	0.10016	-0.00648345	-0.000137071	-0.000137071	13	-3.80754e-05	0	0.000000000000000E+000	3.81577e-09	0.000000000000000E+000	2.39269e+06	3.80754e-05	0.000000000000000E+000	3.80754e-05	0.0000000E+000	0.000000000000000E+000	-6.49383e-07
2	0	0	0	0	0	0	12.1	0.100017	0.100275	-0.00629826	-0.000142173	-0.000142173	13	-3.94926e-05	0	0.000000000000000E+000	3.95783e-09	0.000000000000000E+000	2.48143e+06	3.94926e-05	0.000000000000000E+000	3.94926e-05	0.0000000E+000	0.000000000000000E+000	-6.31556e-07
2	0	0	0	0	0	0	12.9	0.100017	0.100141	-0.00613159	-0.000147136	-0.000147136	13	-4.0871e-05	0	0.000000000000000E+000	4.09593e-09	0.000000000000000E+000	1.92628e+06	4.0871e-05	0.000000000000000E+000	4.0871e-05	0.0000000E+000	0.000000000000000E+000	-6.14023e-07
2	0	0	0	0	0	0	13.7	0.100017	0.100256	-0.00598034	-0.000151971	-0.000151971	13	-4.22141e-05	0	0.000000000000000E+000	4.23055e-09	0.000000000000000E+000	3.97838e+06	4.22141e-05	0.000000000000000E+000	4.22141e-05	0.0000000E+000	0.000000000000000E+000	-5.99563e-07
2	0	0	0	0	0	0	14.5	0.100017	0.10016	-0.00583531	-0.000156688	-0.000156688	13	-4.35245e-05	0	0.000000000000000E+000	4.3619e-09	0.000000000000000E+000	2.73512e+06	4.35245e-05	0.000000000000000E+000	4.35245e-05	0.0000000E+000	0.000000000000000E+000	-5.84465e-07
2	0	0	0	0	0	0	15.3	0.100017	0.100122	-0.00570764	-0.000161299	-0.000161299	13	-4.48052e-05	0	0.000000000000000E+000	4.49026e-09	0.000000000000000E+000	1.68936e+06	4.48052e-05	0.000000000000000E+000	4.48052e-05	0.0000000E+000	0.000000000000000E+000	-5.7146e-07
[...]
2	0	0	0	0	0	0	20.1	0.100017	0.100294	-0.00509617	-0.000187101	-0.000187101	13	-5.19726e-05	0	0.000000000000000E+000	5.20866e-09	0.000000000000000E+000	2.44927e+06	5.19726e-05	0.000000000000000E+000	5.19726e-05	0.0000000E+000	0.000000000000000E+000	-5.11114e-07
2	0	0	0	0	0	0	20.9	0.100017	0.100236	-0.00501677	-0.000191142	-0.000191142	13	-5.30951e-05	0	0.000000000000000E+000	5.32115e-09	0.000000000000000E+000	1.00096e+07	5.30951e-05	0.000000000000000E+000	5.30951e-05	0.0000000E+000	0.000000000000000E+000	-5.02864e-07
2	0	0	0	0	0	0	21.7	0.100017	0.100236	-0.0049366	-0.000195119	-0.000195119	13	-5.41998e-05	0	0.000000000000000E+000	5.43184e-09	0.000000000000000E+000	1.02179e+07	5.41998e-05	0.000000000000000E+000	5.41998e-05	0.0000000E+000	0.000000000000000E+000	-4.94827e-07
2	0	0	0	0	0	0	22.5	0.100017	0.100179	-0.00486405	-0.000199036	-0.000199036	13	-5.52878e-05	0	0.000000000000000E+000	5.54088e-09	0.000000000000000E+000	5.2115e+06	5.52878e-05	0.000000000000000E+000	5.52878e-05	0.0000000E+000	0.000000000000000E+000	-4.87276e-07
2	0	0	0	0	0	0	23.3	0.100017	0.100084	-0.00479288	-0.000202895	-0.000202895	13	-5.63598e-05	0	0.000000000000000E+000	5.64828e-09	0.000000000000000E+000	1.51787e+06	5.63598e-05	0.000000000000000E+000	5.63598e-05	0.0000000E+000	0.000000000000000E+000	-4.79689e-07
2	0	0	0	0	0	0	24.1	0.100017	0.100217	-0.00472884	-0.000206702	-0.000206702	13	-5.74172e-05	0	0.000000000000000E+000	5.75425e-09	0.000000000000000E+000	0.000000000000000E+000	5.74172e-05	0.000000000000000E+000	5.74172e-05	0.0000000E+000	0.000000000000000E+000	-4.73913e-07
2	0	0	0	0	0	0	24.9	0.100017	0.100198	-0.00466599	-0.000210456	-0.000210456	13	-5.846e-05	0	0.000000000000000E+000	5.85874e-09	0.000000000000000E+000	1.1021e+07	5.846e-05	0.000000000000000E+000	5.846e-05	0.0000000E+000	0.000000000000000E+000	-4.67524e-07
2	0	0	0	0	0	0	25.7	0.100017	0.10016	-0.00460667	-0.000214162	-0.000214162	13	-5.94894e-05	0	0.000000000000000E+000	5.96187e-09	0.000000000000000E+000	3.73837e+06	5.94894e-05	0.000000000000000E+000	5.94894e-05	0.0000000E+000	0.000000000000000E+000	-4.61405e-07
2	0	0	0	0	0	0	26.5	0.100017	0.100294	-0.00455425	-0.000217824	-0.000217824	13	-6.05066e-05	0	0.000000000000000E+000	6.06383e-09	0.000000000000000E+000	2.85144e+06	6.05066e-05	0.000000000000000E+000	6.05066e-05	0.0000000E+000	0.000000000000000E+000	-4.56763e-07
2	0	0	0	0	0	0	27.3	0.100017	0.100256	-0.00449986	-0.000221443	-0.000221443	13	-6.15118e-05	0	0.000000000000000E+000	6.16456e-09	0.000000000000000E+000	5.79706e+06	6.15118e-05	0.000000000000000E+000	6.15118e-05	0.0000000E+000	0.000000000000000E+000	-4.51137e-07
2	0	0	0	0	0	0	28.1	0.100017	0.10016	-0.00444167	-0.000225016	-0.000225016	14	-6.25044e-05	0	0.000000000000000E+000	6.264e-09	0.000000000000000E+000	3.92784e+06	6.25044e-05	0.000000000000000E+000	6.25044e-05	0.0000000E+000	0.000000000000000E+000	-4.44878e-07
2	0	0	0	0	0	0	28.9	0.100017	0.100122	-0.0043935	-0.000228548	-0.000228548	14	-6.34856e-05	0	0.000000000000000E+000	6.36229e-09	0.000000000000000E+000	2.39369e+06	6.34856e-05	0.000000000000000E+000	6.34856e-05	0.0000000E+000	0.000000000000000E+000	-4.39885e-07
2	0	0	0	0	0	0	29.7	0.100017	0.100179	-0.00435028	-0.000232044	-0.000232044	14	-6.44566e-05	0	0.000000000000000E+000	6.4596e-09	0.000000000000000E+000	6.07577e+06	6.44566e-05	0.000000000000000E+000	6.44566e-05	0.0000000E+000	0.000000000000000E+000	-4.35808e-07
2	0	0	0	0	0	0	29.9998	0.100017	0.100313	-0.0043354	-0.000233345	-0.000233345	14	-6.48182e-05	0	0.000000000000000E+000	6.49583e-09	0.000000000000000E+000	2.44375e+06	6.48182e-05	0.000000000000000E+000	6.48182e-05	0.0000000E+000	0.000000000000000E+000	-4.34897e-07