Folder: EC-Lab-Processing/Data_1 (part 3)

File: 2022_01_25 Co30Ni60Fe10Nx 1mg  ref309 elect1 set1_01_CV_C02.mpt
EC-Lab ASCII FILE
Nb header lines : 57

Cyclic Voltammetry

Run on channel : 2 (SN 12477)
User :
CE vs. WE compliance from -10 V to 10 V
Electrode connection : standard
Potential control : Ewe
Ewe ctrl range : min = -2.50 V, max = 2.50 V
Safety Limits :
	Do not start on E overload
Acquisition started on : 01/25/2023 15:23:40.993
Loaded Setting File :  C:\Users\grupogalan\Documents\EC-Lab\Data\Scott\2022_01_24 Co50Ni25Fe25Nx elec1 set1.1.mps
Saved on :
	File : 2022_01_25 Co30Ni60Fe10Nx 1mg  ref309 elect1 set1_01_CV_C02.mpr
	Directory : C:\Users\grupogalan\Documents\EC-Lab\Data\Scott\
	Host : 169.254.104.159
Device : VSP (SN 1176)
Address : USB
EC-Lab for windows v11.46 (software)
Internet server v11.40 (firmware)
Command interpretor v11.40 (firmware)
Electrode material :
Initial state :
Electrolyte :
Comments :
Electrode surface area : 0.000 cm²
Characteristic mass : 0.001 g
Equivalent Weight : 0.000 g/eq.
Density : 0.000 g/cm3
Volume (V) : 0.001 cm³
Cycle Definition : Charge/Discharge alternance
Ei (V)              0.000
vs.                 Eoc
dE/dt               10.000
dE/dt unit          mV/s
E1 (V)              1.000
vs.                 Ref
Step percent        50
N                   10
E range min (V)     -2.500
E range max (V)     2.500
I Range             Auto
I Range min         Unset
I Range max         Unset
I Range init        Unset
Bandwidth           5
E2 (V)              0.000
vs.                 Ref
nc cycles           2
Reverse Scan        1
Ef (V)              0.000
vs.                 Eoc

mode	ox/red	error	control changes	counter inc.	time/s	control/V	Ewe/V	<I>/mA	cycle number	(Q-Qo)/C	I Range	P/W
2	0	0	0	0	0.000000000000000E+000	-0.169771	-0.166283	-0.00796736	1	0.0000000E+000	13	1.32484e-06
2	0	0	1	0	4.456	-0.12521	-0.125897	0.00183837	1	5.04309e-06	13	-2.31445e-07
2	1	0	0	0	8.957	-0.0801996	-0.0813054	0.00360103	1	1.86009e-05	13	-2.92784e-07
2	1	0	1	0	13.458	-0.035189	-0.0337163	0.00388794	1	3.64674e-05	13	-1.31087e-07
2	1	0	1	0	17.9592	0.00982159	0.00950062	0.00353362	1	5.35468e-05	13	3.35716e-08
2	1	0	0	0	22.4602	0.0548321	0.0539851	0.00323672	1	6.87553e-05	13	1.74734e-07
2	1	0	1	0	26.9612	0.0998427	0.100349	0.00317738	1	8.2985e-05	13	3.18847e-07
2	1	0	1	0	31.4623	0.144854	0.143776	0.00447543	1	9.94943e-05	13	6.43461e-07
2	1	0	0	0	35.9634	0.189864	0.18895	0.00941926	1	0.000130795	13	1.77977e-06
2	1	0	1	0	40.4644	0.234874	0.235376	0.0119988	1	0.000180501	13	2.82423e-06
2	1	0	0	0	44.9654	0.279885	0.281238	0.0135777	1	0.000238787	13	3.81856e-06
2	1	0	0	0	49.4666	0.324895	0.325188	0.0189348	1	0.000310995	13	6.15738e-06
2	1	0	1	0	53.9676	0.369906	0.368554	0.0402009	1	0.000436214	13	1.48162e-05
2	1	0	0	0	58.4986	0.415217	0.415123	0.12617	1	0.000776734	12	5.23759e-05
2	1	0	1	0	62.9997	0.460227	0.45858	0.376946	1	0.00184031	12	0.00017286
2	1	0	1	0	67.5008	0.505238	0.505834	0.726396	1	0.00434249	12	0.000367435
2	1	0	0	0	72.0018	0.550248	0.551289	1.00814	1	0.00829419	12	0.000555778
2	1	0	1	0	76.5328	0.595559	0.595741	1.2062	1	0.0133563	11	0.000718582
2	1	0	1	0	81.034	0.64057	0.639569	1.58127	1	0.0194137	11	0.00101133
2	1	0	0	0	85.535	0.68558	0.686333	3.47905	1	0.0299305	11	0.00238778
2	1	0	1	0	90.036	0.730591	0.730187	7.79057	1	0.054494	11	0.00568857
2	1	0	1	0	94.5672	0.775901	0.776297	13.941	1	0.10323	10	0.0108224
2	1	0	0	0	99.0682	0.820912	0.819961	21.1431	1	0.181937	10	0.0173365
2	1	0	1	0	103.569	0.865922	0.864165	29.1192	1	0.294859	10	0.0251638
2	1	0	1	0	108.07	0.910934	0.909799	38.0925	1	0.445684	10	0.0346565
2	1	0	0	0	112.571	0.955943	0.954712	47.8169	1	0.638951	10	0.0456513
2	1	0	1	0	116.978	1	0.999479	57.6879	1	0.871278	10	0.0576578
2	1	0	0	0	121.434	0.955443	0.956235	45.5827	1	1.10016	10	0.0435878
2	1	0	0	0	125.935	0.910433	0.910753	35.2377	1	1.28181	10	0.0320929
2	1	0	1	0	130.436	0.865422	0.865298	26.089	1	1.41909	10	0.0225747
2	1	0	0	0	134.937	0.820412	0.819667	18.7299	1	1.51965	10	0.0153523
2	1	0	1	0	139.438	0.775401	0.77479	12.564	1	1.5895	10	0.0097345
2	1	0	1	0	143.939	0.730391	0.729903	7.67868	1	1.63468	10	0.00560469
2	1	0	0	0	148.47	0.68508	0.68148	3.94579	1	1.66052	11	0.00268898
2	1	0	1	0	152.971	0.640069	0.640043	1.54038	1	1.67239	11	0.000985908
2	1	0	1	0	157.502	0.594759	0.595928	0.349586	1	1.67624	12	0.000208328
2	0	0	0	0	162.003	0.549748	0.549882	0.00580359	1	1.67683	12	3.19129e-06
2	0	0	1	0	166.504	0.504738	0.504324	-0.0646509	1	1.67665	12	-3.2605e-05
2	0	0	1	0	171.006	0.459727	0.458879	-0.0921057	1	1.67628	12	-4.22654e-05
2	0	0	0	0	175.507	0.414717	0.413037	-0.114311	1	1.67581	12	-4.72145e-05
2	0	0	1	0	180.008	0.369706	0.370418	-0.143294	1	1.67522	12	-5.30787e-05
2	0	0	0	0	184.509	0.324695	0.323978	-0.188801	1	1.67447	12	-6.11674e-05
2	0	0	0	0	189.01	0.279685	0.280108	-0.179891	1	1.6736	12	-5.03889e-05
2	0	0	1	0	193.511	0.234674	0.23579	-0.124976	1	1.67292	12	-2.94681e-05
2	0	0	0	0	198.012	0.189664	0.189432	-0.0916935	1	1.67244	12	-1.73697e-05
2	0	0	0	0	202.513	0.144653	0.145636	-0.0742212	1	1.67206	12	-1.08093e-05
2	0	0	1	0	207.014	0.0996427	0.0998848	-0.0631323	1	1.67175	12	-6.30596e-06
2	0	0	0	0	211.515	0.0546321	0.0565565	-0.0554497	1	1.67149	12	-3.13604e-06
2	0	0	1	0	216.016	0.00962154	0.0104174	-0.0501919	1	1.67125	12	-5.22869e-07
2	0	0	1	1	220.338	0.0335272	0.0343488	-0.0367211	2	1.67106	12	-1.26133e-06
2	0	0	1	1	224.839	0.0785377	0.0803383	-0.0278399	2	1.67092	12	-2.23661e-06
2	0	0	0	1	229.34	0.123548	0.123954	-0.0214399	2	1.67081	12	-2.65756e-06
2	0	0	1	1	233.841	0.168559	0.169616	-0.01637	2	1.67073	12	-2.77661e-06
2	0	0	1	1	238.342	0.213569	0.212984	-0.0116743	2	1.67067	12	-2.48644e-06
2	0	0	0	1	242.843	0.25858	0.25899	-0.00519364	2	1.67063	12	-1.3451e-06
2	0	0	1	1	247.344	0.30359	0.302198	0.00628522	2	1.67063	12	1.89938e-06
2	1	0	0	1	251.845	0.348601	0.348203	0.0404466	2	1.67072	12	1.40836e-05
2	1	0	0	1	256.346	0.393612	0.392352	0.142559	2	1.6711	12	5.59331e-05
2	1	0	1	1	260.847	0.438622	0.438513	0.289472	2	1.6721	12	0.000126937
2	1	0	0	1	265.348	0.483633	0.484503	0.353757	2	1.67359	12	0.000171396
2	1	0	1	1	269.849	0.528642	0.528069	0.349855	2	1.6752	12	0.000184748
2	1	0	1	1	274.35	0.573654	0.570257	0.340147	2	1.67674	12	0.000193971
2	1	0	0	1	278.851	0.618664	0.618288	0.575438	2	1.67862	12	0.000355786
2	1	0	1	1	283.382	0.663975	0.662222	1.78155	2	1.68347	11	0.00117979
2	1	0	1	1	287.884	0.708986	0.709913	4.42986	2	1.6969	11	0.00314481
2	1	0	0	1	292.385	0.753996	0.753517	8.50763	2	1.72552	11	0.00641064
2	1	0	1	1	296.916	0.799307	0.798367	13.9704	2	1.77597	10	0.0111535
2	1	0	1	1	301.417	0.844317	0.843154	20.6879	2	1.85351	10	0.0174431
2	1	0	0	1	305.918	0.889328	0.889131	28.7342	2	1.96411	10	0.0255485
2	1	0	1	1	310.419	0.934339	0.93539	37.3933	2	2.11276	10	0.0349773
2	1	0	1	1	314.92	0.979349	0.97945	46.8336	2	2.30222	10	0.0458712
2	1	0	0	1	319.241	0.977449	0.976368	45.746	2	2.51401	10	0.0446649
2	1	0	1	1	323.742	0.932438	0.931208	34.837	2	2.69434	10	0.0324405
2	1	0	0	1	328.243	0.887427	0.887215	26.3779	2	2.83167	10	0.0234028
2	1	0	0	1	332.745	0.842417	0.840039	19.3139	2	2.93386	10	0.0162244
2	1	0	1	1	337.246	0.797406	0.797943	13.2231	2	3.00657	10	0.0105513
2	1	0	0	1	341.747	0.752396	0.752017	8.42265	2	3.05476	10	0.00633398
2	1	0	1	1	346.248	0.707385	0.707751	4.77742	2	3.08402	10	0.00338122
2	1	0	1	1	350.779	0.662075	0.661806	2.20385	2	3.09938	11	0.00145852
2	1	0	0	1	355.28	0.617064	0.61708	0.706643	2	3.10553	11	0.000436056
[...]
2	0	0	0	1	409.323	0.0766373	0.0777386	-0.0582308	2	3.10193	12	-4.52678e-06
2	0	0	1	1	413.824	0.0316267	0.0321319	-0.0518652	2	3.10168	12	-1.66653e-06
2	0	0	1	0	418.145	0.011522	0.0129822	-0.0428682	3	3.10147	12	-5.56521e-07
2	0	0	0	0	422.646	0.0565325	0.0569416	-0.0314123	3	3.10131	12	-1.78867e-06
2	0	0	1	0	427.147	0.101543	0.101475	-0.0245079	3	3.10119	12	-2.48694e-06
2	0	0	1	0	431.648	0.146554	0.147068	-0.0195962	3	3.10109	12	-2.88196e-06
2	0	0	0	0	436.149	0.191564	0.191312	-0.0149313	3	3.10101	12	-2.85655e-06
2	0	0	1	0	440.65	0.236575	0.237273	-0.0101516	3	3.10096	12	-2.40871e-06
2	1	0	1	0	445.151	0.281585	0.2779	-0.00235886	3	3.10093	12	-6.55529e-07
2	1	0	0	0	449.653	0.326596	0.326129	0.0141862	3	3.10095	12	4.62652e-06
2	1	0	1	0	454.154	0.371606	0.372686	0.0699093	3	3.10112	12	2.60542e-05
2	1	0	0	0	458.655	0.416617	0.417471	0.198126	3	3.10171	12	8.27119e-05
2	1	0	0	0	463.156	0.461628	0.460234	0.29483	3	3.10285	12	0.000135691
2	1	0	1	0	467.657	0.506638	0.50664	0.317674	3	3.10426	12	0.000160946
2	1	0	0	0	472.158	0.551649	0.551176	0.298527	3	3.10567	12	0.000164541
2	1	0	1	0	476.659	0.596659	0.595741	0.347767	3	3.10706	12	0.000207179
2	1	0	1	0	481.16	0.64167	0.640396	0.932932	3	3.10961	12	0.000597446
2	1	0	0	0	485.691	0.68698	0.685947	2.64491	3	3.11725	11	0.00181427
2	1	0	1	0	490.192	0.731991	0.731424	5.63796	3	3.13543	11	0.00412374
2	1	0	1	0	494.693	0.777002	0.77814	9.93202	3	3.17	11	0.0077285
2	1	0	0	0	499.224	0.822312	0.82272	15.6251	3	3.22739	10	0.0128551
2	1	0	1	0	503.725	0.867323	0.867546	22.5437	3	3.31289	10	0.0195577
2	1	0	1	0	508.226	0.912333	0.914065	30.4312	3	3.43193	10	0.0278161
2	1	0	0	0	512.727	0.957344	0.95732	39.1741	3	3.58806	10	0.0375022
2	1	0	1	0	517.049	0.999454	1.00041	47.6338	3	3.77592	10	0.0476533
2	1	0	0	0	521.55	0.954443	0.95561	36.984	3	3.96465	10	0.0353422
2	1	0	0	0	526.051	0.909433	0.90986	28.0359	3	4.11074	10	0.0255088
2	1	0	1	0	530.552	0.864422	0.864348	20.7253	3	4.21991	10	0.0179139
2	1	0	0	0	535.053	0.819411	0.81989	14.4751	3	4.29855	10	0.011868
2	1	0	0	0	539.554	0.774401	0.775311	9.4415	3	4.35186	10	0.0073201
2	1	0	1	0	544.055	0.72939	0.729459	5.69801	3	4.38552	10	0.00415646
2	1	0	0	0	548.586	0.68408	0.682316	2.90951	3	4.40459	11	0.00198521
2	1	0	1	0	553.087	0.639069	0.6387	1.15392	3	4.41336	11	0.000737007
2	1	0	1	0	557.618	0.593759	0.594537	0.273333	3	4.41628	12	0.000162507
2	0	0	0	0	562.119	0.548748	0.54856	-0.00539523	3	4.41673	12	-2.95961e-06
2	0	0	1	0	566.62	0.503737	0.503033	-0.0690786	3	4.41652	12	-3.47488e-05
2	0	0	1	0	571.122	0.458727	0.459409	-0.0910987	3	4.41615	12	-4.18516e-05
2	0	0	0	0	575.623	0.413716	0.413049	-0.109201	3	4.41569	12	-4.51053e-05
2	0	0	1	0	580.124	0.368706	0.367031	-0.137913	3	4.41513	12	-5.06183e-05
2	0	0	1	0	584.625	0.323696	0.322719	-0.174299	3	4.41442	12	-5.62496e-05
2	0	0	0	0	589.126	0.278685	0.278542	-0.163669	3	4.41363	12	-4.55887e-05
2	0	0	1	0	593.627	0.233674	0.234198	-0.115821	3	4.413	12	-2.71252e-05
2	0	0	0	0	598.128	0.188664	0.18926	-0.0869924	3	4.41255	12	-1.64642e-05
2	0	0	0	0	602.629	0.143653	0.143119	-0.0711349	3	4.41219	12	-1.01807e-05
2	0	0	1	0	607.13	0.0986424	0.0949441	-0.060851	3	4.4119	12	-5.77745e-06
2	0	0	0	0	611.631	0.0536319	0.0524898	-0.0537651	3	4.41164	12	-2.82212e-06
2	0	0	0	0	616.132	0.00862131	0.009222	-0.0482812	3	4.41141	12	-4.45249e-07
2	0	0	0	1	620.454	-0.0345889	-0.0352073	-0.0441138	3	4.41121	12	1.55313e-06
2	0	0	1	1	624.955	-0.0795994	-0.080902	-0.040583	3	4.41101	12	3.28325e-06
2	0	0	0	1	629.456	-0.12461	-0.12674	-0.0371204	3	4.41084	12	4.70463e-06
2	0	0	1	1	633.952	-0.169571	-0.168477	-0.0346289	3	4.41068	12	5.83419e-06
2	0	0	0	1	634	-0.170071	-0.170357	-0.0392366	3	4.41067	12	6.68422e-06

File: 2022_01_25 Co30Ni60Fe10Nx 1mg  ref309 elect1 tafel_C02.mpt
EC-Lab ASCII FILE
Nb header lines : 53

Chronopotentiometry

Run on channel : 2 (SN 12477)
User :
CE vs. WE compliance from -10 V to 10 V
Electrode connection : standard
Potential control : Ewe
Ewe ctrl range : min = -2.50 V, max = 2.50 V
Safety Limits :
	Do not start on E overload
Acquisition started on : 01/25/2023 15:36:48.991
Loaded Setting File :  C:\Users\grupogalan\Documents\EC-Lab\Data\Scott\_cyclic_pause_tafel.mps
Saved on :
	File : 2022_01_25 Co30Ni60Fe10Nx 1mg  ref309 elect1 tafel_C02.mpr
	Directory : C:\Users\grupogalan\Documents\EC-Lab\Data\Scott\
	Host : 169.254.104.159
Device : VSP (SN 1176)
Address : USB
EC-Lab for windows v11.46 (software)
Internet server v11.40 (firmware)
Command interpretor v11.40 (firmware)
Electrode material :
Initial state :
Electrolyte :
Comments :
Electrode surface area : 0.000 cm²
Characteristic mass : 0.001 g
Equivalent Weight : 0.000 g/eq.
Density : 0.000 g/cm3
Volume (V) : 0.001 cm³
Cycle Definition : Charge/Discharge alternance
Ns                  0                   1                   2                   3                   4                   5                   6                   7                   8                   9                   10                  11                  12
Is                  10.000              18.000              32.000              56.000              100.000             178.000             316.000             562.000             1.000               1.778               3.162               5.623               10.000
unit Is             µA                  µA                  µA                  µA                  µA                  µA                  µA                  µA                  mA                  mA                  mA                  mA                  mA
vs.                 <None>              <None>              <None>              <None>              <None>              <None>              <None>              <None>              <None>              <None>              <None>              <None>              <None>
ts (h:m:s)          0:03:0.0000         0:03:0.0000         0:03:0.0000         0:03:0.0000         0:03:0.0000         0:03:0.0000         0:03:0.0000         0:03:0.0000         0:03:0.0000         0:03:0.0000         0:03:0.0000         0:03:0.0000         0:03:0.0000
EM (V)              pass                pass                pass                pass                pass                pass                pass                pass                pass                pass                pass                pass                pass
dQM                 500.000             900.000             1.600               2.800               5.000               8.900               15.800              28.100              50.000              88.900              158.100             281.150             500.000
unit dQM            nA.h                nA.h                µA.h                µA.h                µA.h                µA.h                µA.h                µA.h                µA.h                µA.h                µA.h                µA.h                µA.h
record              <Ewe>               <Ewe>               <Ewe>               <Ewe>               <Ewe>               <Ewe>               <Ewe>               <Ewe>               <Ewe>               <Ewe>               <Ewe>               <Ewe>               <Ewe>
dEs (mV)            0.00                0.00                0.00                0.00                0.00                0.00                0.00                0.00                0.00                0.00                0.00                0.00                0.00
dts (s)             1.0000              1.0000              1.0000              1.0000              1.0000              1.0000              1.0000              1.0000              1.0000              1.0000              1.0000              1.0000              1.0000
E range min (V)     -2.500              -2.500              -2.500              -2.500              -2.500              -2.500              -2.500              -2.500              -2.500              -2.500              -2.500              -2.500              -2.500
E range max (V)     2.500               2.500               2.500               2.500               2.500               2.500               2.500               2.500               2.500               2.500               2.500               2.500               2.500
I Range             10 mA               10 mA               10 mA               10 mA               10 mA               10 mA               10 mA               10 mA               10 mA               10 mA               10 mA               10 mA               10 mA
Bandwidth           5                   5                   5                   5                   5                   5                   5                   5                   5                   5                   5                   5                   5
goto Ns'            0                   0                   0                   0                   0                   0                   0                   0                   0                   0                   0                   0                   0
nc cycles           0                   0                   0                   0                   0                   0                   0                   0                   0                   0                   0                   0                   0

mode	ox/red	error	control changes	Ns changes	counter inc.	Ns	time/s	control/mA	<Ewe>/V	I/mA	dQ/C	(Q-Qo)/C	half cycle	Q charge/discharge/mA.h	I Range	Energy charge/W.h	Energy discharge/W.h	Capacitance charge/µF	Capacitance discharge/µF	Q discharge/mA.h	Q charge/mA.h	Capacity/mA.h	Efficiency/%	cycle number	P/W
1	1	0	1	0	0	0	1	0.01	0.325533	0.0113894	1.12377e-05	1.12377e-05	0	3.12158e-06	11	1.01618e-09	0.000000000000000E+000	0.000000000000000E+000	0.000000000000000E+000	0.000000000000000E+000	3.12158e-06	3.12158e-06	0.0000000E+000	0.000000000000000E+000	3.70763e-06
1	1	0	1	0	0	0	58	0.01	0.350986	0.0118348	0.000684678	0.000684678	0	0.000190188	11	6.59269e-08	0.000000000000000E+000	26898.8	0.000000000000000E+000	0.000000000000000E+000	0.000190188	0.000190188	0.0000000E+000	0.000000000000000E+000	4.15386e-06
1	1	0	1	0	0	0	115	0.01	0.345867	0.0117076	0.00135802	0.00135802	0	0.000377228	11	1.31271e-07	0.000000000000000E+000	66784.4	0.000000000000000E+000	0.000000000000000E+000	0.000377228	0.000377228	0.0000000E+000	0.000000000000000E+000	4.04926e-06
1	1	0	1	0	0	0	172	0.01	0.330972	0.0120893	0.00203079	0.00203079	0	0.000564108	11	1.94589e-07	0.000000000000000E+000	373341	0.000000000000000E+000	0.000000000000000E+000	0.000564108	0.000564108	0.0000000E+000	0.000000000000000E+000	4.00122e-06
1	1	0	0	0	0	1	228.05	0.018	0.349337	0.0195971	0.000921445	0.00304725	0	0.000846459	11	2.92377e-07	0.000000000000000E+000	128014	0.000000000000000E+000	0.000000000000000E+000	0.000846459	0.000846459	0.0000000E+000	0.000000000000000E+000	6.84598e-06
1	1	0	0	0	0	1	285.05	0.018	0.343324	0.0191517	0.00201604	0.00414185	0	0.00115051	11	3.97816e-07	0.000000000000000E+000	232797	0.000000000000000E+000	0.000000000000000E+000	0.00115051	0.00115051	0.0000000E+000	0.000000000000000E+000	6.57524e-06
[...]
1	1	0	1	0	0	8	1589.05	1	0.670654	1.00133	0.149222	0.380433	0	0.105676	11	6.6273e-05	0.000000000000000E+000	1.10232e+06	0.000000000000000E+000	0.000000000000000E+000	0.105676	0.105676	0.0000000E+000	0.000000000000000E+000	0.000671548
1	1	0	0	0	0	9	1645.05	1.778	0.70375	1.77902	0.0444741	0.455953	0	0.126654	11	8.0755e-05	0.000000000000000E+000	1.20553e+06	0.000000000000000E+000	0.000000000000000E+000	0.126654	0.126654	0.0000000E+000	0.000000000000000E+000	0.00125199
1	1	0	0	0	0	9	1702.05	1.778	0.704067	1.77953	0.145876	0.557355	0	0.154821	11	0.000100582	0.000000000000000E+000	1.4724e+06	0.000000000000000E+000	0.000000000000000E+000	0.154821	0.154821	0.0000000E+000	0.000000000000000E+000	0.00125291
1	1	0	0	0	0	9	1759.05	1.778	0.704615	1.77858	0.247278	0.658757	0	0.182988	11	0.000120422	0.000000000000000E+000	1.73777e+06	0.000000000000000E+000	0.000000000000000E+000	0.182988	0.182988	0.0000000E+000	0.000000000000000E+000	0.00125321
1	1	0	1	0	0	10	1815.05	3.162	0.742687	3.16274	0.047449	0.779145	0	0.216429	11	0.000144498	0.000000000000000E+000	1.86776e+06	0.000000000000000E+000	0.000000000000000E+000	0.216429	0.216429	0.0000000E+000	0.000000000000000E+000	0.00234893
1	1	0	1	0	0	10	1872.05	3.162	0.743563	3.16332	0.227756	0.959452	0	0.266514	11	0.00018172	0.000000000000000E+000	2.29517e+06	0.000000000000000E+000	0.000000000000000E+000	0.266514	0.266514	0.0000000E+000	0.000000000000000E+000	0.00235213
1	1	0	1	0	0	10	1929.05	3.162	0.74463	3.16389	0.408063	1.13976	0	0.3166	11	0.000218991	0.000000000000000E+000	2.71956e+06	0.000000000000000E+000	0.000000000000000E+000	0.3166	0.3166	0.0000000E+000	0.000000000000000E+000	0.00235593
1	1	0	0	0	0	11	1985.05	5.623	0.787892	5.62396	0.0281199	1.32921	0	0.369224	11	0.000258539	0.000000000000000E+000	2.87483e+06	0.000000000000000E+000	0.000000000000000E+000	0.369224	0.369224	0.0000000E+000	0.000000000000000E+000	0.00443107
1	1	0	0	0	0	11	2042.05	5.623	0.790414	5.62421	0.348692	1.64978	0	0.458272	11	0.000328801	0.000000000000000E+000	3.54882e+06	0.000000000000000E+000	0.000000000000000E+000	0.458272	0.458272	0.0000000E+000	0.000000000000000E+000	0.00444545
1	1	0	0	0	0	11	2099.05	5.623	0.792545	5.62383	0.669264	1.97035	0	0.54732	11	0.000399227	0.000000000000000E+000	4.21905e+06	0.000000000000000E+000	0.000000000000000E+000	0.54732	0.54732	0.0000000E+000	0.000000000000000E+000	0.00445714
1	1	0	0	0	0	11	2156.05	5.623	0.793543	5.62338	0.989837	2.29092	0	0.636368	11	0.000469815	0.000000000000000E+000	4.89502e+06	0.000000000000000E+000	0.000000000000000E+000	0.636368	0.636368	0.0000000E+000	0.000000000000000E+000	0.0044624
1	1	0	1	0	0	12	2212.05	10	0.847654	10.0019	0.520072	2.83349	0	0.787081	11	0.00059683	0.000000000000000E+000	5.42688e+06	0.000000000000000E+000	0.000000000000000E+000	0.787081	0.787081	0.0000000E+000	0.000000000000000E+000	0.00847813
1	1	0	1	0	0	12	2269.05	10	0.850205	10.0012	1.09015	3.40357	0	0.945437	11	0.000731206	0.000000000000000E+000	6.48704e+06	0.000000000000000E+000	0.000000000000000E+000	0.945437	0.945437	0.0000000E+000	0.000000000000000E+000	0.00850311
1	1	0	1	0	0	12	2326.05	10	0.853459	10.0018	1.66023	3.97365	0	1.10379	11	0.000866139	0.000000000000000E+000	7.5269e+06	0.000000000000000E+000	0.000000000000000E+000	1.10379	1.10379	0.0000000E+000	0.000000000000000E+000	0.00853614
1	1	0	1	0	0	12	2340.05	10	0.854185	10.0019	1.80025	4.11367	0	1.14269	11	0.000899359	0.000000000000000E+000	7.78143e+06	0.000000000000000E+000	0.000000000000000E+000	1.14269	1.14269	0.0000000E+000	0.000000000000000E+000	0.00854345