Folder: EC-Lab-Processing/Data_1mg (part 12)

File: 2023_01_31_Co45Ni45Fe10Nx 1mg ref309_01_PEIS_C05.mpt
EC-Lab ASCII FILE
Nb header lines : 63

Potentio Electrochemical Impedance Spectroscopy

Run on channel : 5 (SN 30436)
User :
CE vs. WE compliance from -10 V to 10 V
Electrode connection : standard
Potential control : Ewe
Ewe ctrl range : min = -10.00 V, max = 10.00 V
Safety Limits :
	Do not start on E overload
Acquisition started on : 01/31/2023 13:05:58.350
Loaded Setting File :  C:\Users\grupogalan\Documents\EC-Lab\Data\Scott\_cyclic_pause_tafel_CA.mps
Saved on :
	File : 2023_01_31_Co45Ni45Fe10Nx 1mg ref309_01_PEIS_C05.mpr
	Directory : C:\Users\grupogalan\Documents\EC-Lab\Data\Scott\
	Host : 169.254.104.159
Device : VSP (SN 1176)
Address : USB
EC-Lab for windows v11.46 (software)
Internet server v11.40 (firmware)
Command interpretor v11.40 (firmware)
Electrode material :
Initial state :
Electrolyte :
Comments :
Electrode surface area : 0.001 cm²
Characteristic mass : 0.001 g
Equivalent Weight : 0.000 g/eq.
Density : 0.000 g/cm3
Volume (V) : 0.001 cm³
Cycle Definition : Charge/Discharge alternance
Mode                Single sine
E (V)               0.0000
vs.                 Eoc
tE (h:m:s)          0:00:0.0000
record              0
dI                  0.000
unit dI             mA
dt (s)              0.000
fi                  200.000
unit fi             kHz
ff                  100.000
unit ff             mHz
Nd                  6
Points              per decade
spacing             Logarithmic
Va (mV)             10.0
pw                  0.10
Na                  2
corr                0
E range min (V)     -10.000
E range max (V)     10.000
I Range             Auto
Bandwidth           5
nc cycles           0
goto Ns'            0
nr cycles           0
inc. cycle          0

freq/Hz	Re(Z)/Ohm	-Im(Z)/Ohm	|Z|/Ohm	Phase(Z)/deg	time/s	<Ewe>/V	<I>/mA	Cs/µF	Cp/µF	cycle number	I Range	|Ewe|/V	|I|/A	Ns	(Q-Qo)/mA.h	Re(Y)/Ohm-1	Im(Y)/Ohm-1	|Y|/Ohm-1	Phase(Y)/deg	Re(C)/nF	Im(C)/nF	|C|/nF	Phase(C)/deg	Re(M)	Im(M)	|M|	Phase(M)/deg	Re(Permittivity)	Im(Permittivity)	|Permittivity|	Phase(Permittivity)/deg	Re(Resistivity)/Ohm.cm	Im(Resistivity)/Ohm.cm	|Resistivity|/Ohm.cm	Phase(Resistivity)/deg	Re(Conductivity)/mS/cm	Im(Conductivity)/mS/cm	|Conductivity|/mS/cm	Phase(Conductivity)/deg	Tan(Delta)	Loss Angle(Delta)/deg	dq/mA.h
199998	2.11422	-1.99561	2.9073	43.3469	2.12048	-0.15687	-0.177708	-0.398767	-0.187884	1	9	0.0101329	0.00348534	0	-2.38921e-05	0.250133	-0.2361	0.343962	-43.3469	-187.884	199.051	273.719	-133.347	0.0000000E+000	0.0000000E+000	0.0000000E+000	133.347	0.0000000E+000	0.0000000E+000	0.0000000E+000	-133.347	0.0000000E+000	0.0000000E+000	0.0000000E+000	43.3469	0.0000000E+000	0.0000000E+000	0.0000000E+000	-43.3469	-1.05944	-43.3469	-2.38921e-05
91291.2	0.898286	-0.249623	0.932325	15.53	3.10149	-0.156813	-0.177	-6.98404	-0.500658	1	9	0.00946215	0.010149	0	-5.16703e-05	1.03343	-0.287177	1.07259	-15.53	-500.658	1801.65	1869.92	-105.53	0.0000000E+000	0.0000000E+000	0.0000000E+000	105.53	0.0000000E+000	0.0000000E+000	0.0000000E+000	-105.53	0.0000000E+000	0.0000000E+000	0.0000000E+000	15.53	0.0000000E+000	0.0000000E+000	0.0000000E+000	-15.53	-3.59857	-15.53	2.01512e-06
41669.8	0.895452	0.0531106	0.897025	-3.39432	4.0825	-0.156887	-0.170515	71.9147	0.252099	1	9	0.00995476	0.0110975	0	-0.000130367	1.11284	0.0660043	1.1148	3.39432	252.099	4250.42	4257.89	-86.6057	0.0000000E+000	0.0000000E+000	0.0000000E+000	86.6057	0.0000000E+000	0.0000000E+000	0.0000000E+000	-86.6057	0.0000000E+000	0.0000000E+000	0.0000000E+000	-3.39432	0.0000000E+000	0.0000000E+000	0.0000000E+000	3.39432	16.8601	3.39432	-3.14236e-06
19020.9	0.922847	0.249427	0.95596	-15.1245	5.0635	-0.156793	-0.166881	33.5463	2.28377	1	9	0.0101329	0.0105997	0	-0.000140473	1.00983	0.272938	1.04607	15.1245	2283.77	8449.64	8752.83	-74.8755	0.0000000E+000	0.0000000E+000	0.0000000E+000	74.8755	0.0000000E+000	0.0000000E+000	0.0000000E+000	-74.8755	0.0000000E+000	0.0000000E+000	0.0000000E+000	-15.1245	0.0000000E+000	0.0000000E+000	0.0000000E+000	15.1245	3.69986	15.1245	1.47699e-05
8683.37	0.966891	0.526663	1.10102	-28.577	5.93499	-0.156712	-0.183	34.8016	7.96291	1	9	0.0101156	0.00918748	0	-0.000204488	0.797599	0.43445	0.908246	28.577	7962.91	14618.9	16647	-61.423	0.0000000E+000	0.0000000E+000	0.0000000E+000	61.423	0.0000000E+000	0.0000000E+000	0.0000000E+000	-61.423	0.0000000E+000	0.0000000E+000	0.0000000E+000	-28.577	0.0000000E+000	0.0000000E+000	0.0000000E+000	28.577	1.83588	28.577	-2.47018e-05
3961.2	1.11994	1.08685	1.56061	-44.1409	6.81493	-0.156845	-0.176981	36.9679	17.9298	1	9	0.00946984	0.00606805	0	-0.000249991	0.45984	0.446253	0.640776	44.1409	17929.8	18475.7	25745.4	-45.8591	0.0000000E+000	0.0000000E+000	0.0000000E+000	45.8591	0.0000000E+000	0.0000000E+000	0.0000000E+000	-45.8591	0.0000000E+000	0.0000000E+000	0.0000000E+000	-44.1409	0.0000000E+000	0.0000000E+000	0.0000000E+000	44.1409	1.03045	44.1409	-2.59087e-05
1808.26	1.19082	2.1738	2.4786	-61.2858	7.95995	-0.156912	-0.172024	40.4891	31.1433	1	9	0.00946546	0.00381887	0	-0.000305664	0.193835	0.353839	0.403453	61.2858	31143.3	17060.5	35510.1	-28.7142	0.0000000E+000	0.0000000E+000	0.0000000E+000	28.7142	0.0000000E+000	0.0000000E+000	0.0000000E+000	-28.7142	0.0000000E+000	0.0000000E+000	0.0000000E+000	-61.2858	0.0000000E+000	0.0000000E+000	0.0000000E+000	61.2858	0.547806	61.2858	-1.91699e-05
825.264	1.35478	4.58163	4.77774	-73.5271	9.13369	-0.156798	-0.0233483	42.0927	38.7082	1	10	0.00960155	0.00200964	0	-0.000324599	0.0593505	0.200713	0.209304	73.5271	38708.2	11446	40365	-16.4729	0.0000000E+000	0.0000000E+000	0.0000000E+000	16.4729	0.0000000E+000	0.0000000E+000	0.0000000E+000	-16.4729	0.0000000E+000	0.0000000E+000	0.0000000E+000	-73.5271	0.0000000E+000	0.0000000E+000	0.0000000E+000	73.5271	0.295698	73.5271	-4.10616e-06
377.051	1.78221	9.84887	10.0088	-79.743	10.0567	-0.156768	-0.0231228	42.8581	41.4992	1	10	0.00955739	0.000954896	0	-0.000330341	0.0177907	0.0983151	0.0999118	79.743	41499.2	7509.54	42173.2	-10.257	0.0000000E+000	0.0000000E+000	0.0000000E+000	10.257	0.0000000E+000	0.0000000E+000	0.0000000E+000	-10.257	0.0000000E+000	0.0000000E+000	0.0000000E+000	-79.743	0.0000000E+000	0.0000000E+000	0.0000000E+000	79.743	0.180956	79.743	-3.35346e-06
172.037	3.0798	20.1698	20.4036	-81.3184	10.9754	-0.156827	-0.0233297	45.8666	44.8216	1	10	0.00929943	0.000455774	0	-0.000336168	0.00739791	0.0484494	0.049011	81.3184	44821.6	6843.96	45341.1	-8.68163	0.0000000E+000	0.0000000E+000	0.0000000E+000	8.68163	0.0000000E+000	0.0000000E+000	0.0000000E+000	-8.68163	0.0000000E+000	0.0000000E+000	0.0000000E+000	-81.3184	0.0000000E+000	0.0000000E+000	0.0000000E+000	81.3184	0.152693	81.3184	-2.49829e-06
78.5176	4.33432	42.3201	42.5415	-84.1523	12.3706	-0.157223	-0.00290153	47.8967	47.3995	1	11	0.0100855	0.000237073	0	-0.000339667	0.00239494	0.0233841	0.0235064	84.1523	47399.5	4854.54	47647.5	-5.84769	0.0000000E+000	0.0000000E+000	0.0000000E+000	5.84769	0.0000000E+000	0.0000000E+000	0.0000000E+000	-5.84769	0.0000000E+000	0.0000000E+000	0.0000000E+000	-84.1523	0.0000000E+000	0.0000000E+000	0.0000000E+000	84.1523	0.102417	84.1523	-4.85113e-07
[...]
16.367	17.4953	185.207	186.031	-84.6036	14.436	-0.156669	-0.00041635	52.5043	52.0399	1	12	0.0100366	5.39511e-05	0	-0.00034102	0.000505533	0.00535162	0.00537544	84.6036	52039.9	4915.88	52271.6	-5.39635	0.0000000E+000	0.0000000E+000	0.0000000E+000	5.39635	0.0000000E+000	0.0000000E+000	0.0000000E+000	-5.39635	0.0000000E+000	0.0000000E+000	0.0000000E+000	-84.6036	0.0000000E+000	0.0000000E+000	0.0000000E+000	84.6036	0.0944636	84.6036	-2.98573e-07
7.46893	36.1456	392.708	394.368	-84.7412	15.1866	-0.156814	-0.000370239	54.2615	53.8056	1	12	0.0100792	2.55579e-05	0	-0.000341006	0.000232408	0.00252503	0.0025357	84.7412	53805.6	4952.37	54033.1	-5.25879	0.0000000E+000	0.0000000E+000	0.0000000E+000	5.25879	0.0000000E+000	0.0000000E+000	0.0000000E+000	-5.25879	0.0000000E+000	0.0000000E+000	0.0000000E+000	-84.7412	0.0000000E+000	0.0000000E+000	0.0000000E+000	84.7412	0.0920417	84.7412	-1.59966e-07
3.4086	75.719	810.663	814.192	-84.6638	16.6482	-0.156829	7.34292e-05	57.5976	57.0994	1	13	0.00996998	1.22453e-05	0	-0.000341021	0.000114222	0.00122289	0.00122821	84.6638	57099.4	5333.3	57348	-5.33616	0.0000000E+000	0.0000000E+000	0.0000000E+000	5.33616	0.0000000E+000	0.0000000E+000	0.0000000E+000	-5.33616	0.0000000E+000	0.0000000E+000	0.0000000E+000	-84.6638	0.0000000E+000	0.0000000E+000	0.0000000E+000	84.6638	0.0934037	84.6638	-1.94603e-07
1.55627	196.944	1711.52	1722.82	-83.4359	18.9815	-0.156799	-5.34829e-05	59.7518	58.9709	1	13	0.010128	5.87872e-06	0	-0.000340964	6.63536e-05	0.000576639	0.000580444	83.4359	58970.9	6785.76	59360.1	-6.56413	0.0000000E+000	0.0000000E+000	0.0000000E+000	6.56413	0.0000000E+000	0.0000000E+000	0.0000000E+000	-6.56413	0.0000000E+000	0.0000000E+000	0.0000000E+000	-83.4359	0.0000000E+000	0.0000000E+000	0.0000000E+000	83.4359	0.115069	83.4359	1.12366e-07
0.710357	606.248	3544.38	3595.86	-80.2938	25.0012	-0.15679	6.63223e-05	63.2125	61.4157	1	14	0.0101075	2.81087e-06	0	-0.000340756	4.68862e-05	0.000274117	0.000278098	80.2938	61415.7	10504.8	62307.6	-9.70621	0.0000000E+000	0.0000000E+000	0.0000000E+000	9.70621	0.0000000E+000	0.0000000E+000	0.0000000E+000	-9.70621	0.0000000E+000	0.0000000E+000	0.0000000E+000	-80.2938	0.0000000E+000	0.0000000E+000	0.0000000E+000	80.2938	0.171045	80.2938	3.64626e-08
0.324439	1439.73	7228.72	7370.7	-78.7359	35.915	-0.156791	3.42668e-05	67.8618	65.2726	1	14	0.0100759	1.36703e-06	0	-0.000340841	2.65011e-05	0.000133059	0.000135672	78.7359	65272.6	13000.2	66554.6	-11.2641	0.0000000E+000	0.0000000E+000	0.0000000E+000	11.2641	0.0000000E+000	0.0000000E+000	0.0000000E+000	-11.2641	0.0000000E+000	0.0000000E+000	0.0000000E+000	-78.7359	0.0000000E+000	0.0000000E+000	0.0000000E+000	78.7359	0.199168	78.7359	-5.02664e-08
0.147897	4416.09	14485.4	15143.6	-73.0454	59.7866	-0.156808	7.10769e-05	74.2899	67.9724	1	14	0.0101179	6.68126e-07	0	-0.000340643	1.92565e-05	6.31642e-05	6.60343e-05	73.0454	67972.4	20722.3	71061	-16.9546	0.0000000E+000	0.0000000E+000	0.0000000E+000	16.9546	0.0000000E+000	0.0000000E+000	0.0000000E+000	-16.9546	0.0000000E+000	0.0000000E+000	0.0000000E+000	-73.0454	0.0000000E+000	0.0000000E+000	0.0000000E+000	73.0454	0.304864	73.0454	1.9395e-07
0.0999041	7768.97	19828.9	21296.5	-68.6047	80.8506	-0.156796	0.000107216	80.3412	69.6494	1	14	0.0101013	4.74318e-07	0	-0.000340079	1.71295e-05	4.37201e-05	4.6956e-05	68.6047	69649.4	27288.7	74804.5	-21.3953	0.0000000E+000	0.0000000E+000	0.0000000E+000	21.3953	0.0000000E+000	0.0000000E+000	0.0000000E+000	-21.3953	0.0000000E+000	0.0000000E+000	0.0000000E+000	-68.6047	0.0000000E+000	0.0000000E+000	0.0000000E+000	68.6047	0.391801	68.6047	5.64111e-07

File: 2023_01_31_Co45Ni45Fe10Nx 1mg ref309_02_CV_C05.mpt
EC-Lab ASCII FILE
Nb header lines : 57

Cyclic Voltammetry

Run on channel : 5 (SN 30436)
User :
CE vs. WE compliance from -10 V to 10 V
Electrode connection : standard
Potential control : Ewe
Ewe ctrl range : min = -10.00 V, max = 10.00 V
Safety Limits :
	Do not start on E overload
Acquisition started on : 01/31/2023 13:05:58.350
Loaded Setting File :  C:\Users\grupogalan\Documents\EC-Lab\Data\Scott\_cyclic_pause_tafel_CA.mps
Saved on :
	File : 2023_01_31_Co45Ni45Fe10Nx 1mg ref309_02_CV_C05.mpr
	Directory : C:\Users\grupogalan\Documents\EC-Lab\Data\Scott\
	Host : 169.254.104.159
Device : VSP (SN 1176)
Address : USB
EC-Lab for windows v11.46 (software)
Internet server v11.40 (firmware)
Command interpretor v11.40 (firmware)
Electrode material :
Initial state :
Electrolyte :
Comments :
Electrode surface area : 0.001 cm²
Characteristic mass : 0.001 g
Equivalent Weight : 0.000 g/eq.
Density : 0.000 g/cm3
Volume (V) : 0.001 cm³
Cycle Definition : Charge/Discharge alternance
Ei (V)              0.000
vs.                 Eoc
dE/dt               10.000
dE/dt unit          mV/s
E1 (V)              1.000
vs.                 Ref
Step percent        50
N                   10
E range min (V)     -10.000
E range max (V)     10.000
I Range             Auto
I Range min         Unset
I Range max         Unset
I Range init        Unset
Bandwidth           5
E2 (V)              0.000
vs.                 Ref
nc cycles           2
Reverse Scan        0
Ef (V)              0.000
vs.                 Eoc

mode	ox/red	error	control changes	counter inc.	time/s	control/V	Ewe/V	<I>/mA	cycle number	(Q-Qo)/C	I Range	P/W
2	1	0	1	0	80.9984	-0.156489	-0.155237	0.0986948	1	0.0000000E+000	13	-1.53211e-05
2	1	0	1	0	85.509	-0.111384	-0.111544	0.00111603	1	4.9659e-06	12	-1.24486e-07
2	0	0	0	0	90.1272	-0.065201	-0.0653203	0.00250392	1	1.56788e-05	12	-1.63557e-07
2	1	0	1	0	94.7455	-0.0190178	-0.0194397	0.00277383	1	3.03752e-05	12	-5.39224e-08
2	1	0	1	0	99.3637	0.0271637	0.0273152	0.00328148	1	4.71939e-05	12	8.96343e-08
2	1	0	0	0	103.982	0.0733466	0.0729685	0.00377088	1	6.63642e-05	12	2.75155e-07
2	1	0	1	0	108.6	0.119529	0.119717	0.00578408	1	9.00971e-05	12	6.92456e-07
2	1	0	1	0	113.219	0.165712	0.165541	0.0135383	1	0.000135806	12	2.24115e-06
2	1	0	1	0	117.837	0.211893	0.211717	0.0180941	1	0.000213737	12	3.83083e-06
2	1	0	1	0	122.455	0.258077	0.257727	0.0231663	1	0.000311111	12	5.97059e-06
2	1	0	1	0	127.073	0.30426	0.30406	0.0397641	1	0.000452338	12	1.20907e-05
2	1	0	1	0	131.692	0.350442	0.350333	0.104658	1	0.000759454	12	3.66653e-05
2	1	0	1	0	136.31	0.396624	0.396692	0.33037	1	0.00168371	12	0.000131055
2	1	0	0	0	140.928	0.442807	0.442596	0.806284	1	0.00424352	12	0.000356858
2	1	0	1	0	145.577	0.489298	0.489204	1.40909	1	0.0094117	11	0.000689333
2	1	0	1	0	150.195	0.535479	0.536035	1.91523	1	0.0171994	11	0.00102663
2	1	0	0	0	154.814	0.581662	0.581827	2.21092	1	0.0268394	11	0.00128638
2	1	0	1	0	159.432	0.627845	0.627714	2.63191	1	0.037798	11	0.00165208
2	1	0	1	0	164.05	0.674028	0.673554	5.39	1	0.0548641	11	0.00363046
2	1	0	1	0	168.668	0.720209	0.720108	12.1843	1	0.094202	10	0.00877401
2	1	0	1	0	173.287	0.766393	0.76682	21.5236	1	0.17158	10	0.0165048
2	1	0	1	0	177.905	0.812576	0.812414	31.6879	1	0.294721	10	0.0257437
2	1	0	1	0	182.523	0.858758	0.858793	41.7458	1	0.463982	10	0.035851
2	1	0	1	0	187.141	0.90494	0.904797	53.9847	1	0.684932	10	0.0488452
2	1	0	0	0	191.76	0.951123	0.951221	68.8006	1	0.968275	10	0.0654446
2	1	0	1	0	196.378	0.997306	0.996597	85.6514	1	1.3244	10	0.0853599
2	1	0	1	0	200.504	0.961284	0.961375	74.438	1	1.65825	10	0.0715628
2	1	0	1	0	205.122	0.9151	0.915271	59.9367	1	1.9677	10	0.0548583
2	1	0	1	0	209.741	0.868917	0.868948	46.1245	1	2.21184	10	0.0400798
2	1	0	1	0	214.359	0.822736	0.823535	34.0026	1	2.39611	10	0.0280023
2	1	0	1	0	218.977	0.776553	0.776992	23.5089	1	2.52808	10	0.0182662
2	1	0	0	0	223.595	0.73037	0.729964	14.8071	1	2.61575	10	0.0108086
2	1	0	1	0	228.214	0.684187	0.684297	7.96389	1	2.66747	10	0.00544966
2	1	0	1	0	232.863	0.637698	0.637672	3.19368	1	2.69243	11	0.00203652
2	1	0	0	0	237.481	0.591515	0.591373	0.698287	1	2.70049	11	0.000412948
2	0	0	1	0	242.13	0.545024	0.545307	-0.00897606	1	2.70159	12	-4.89471e-06
2	0	0	1	0	246.748	0.498842	0.499188	-0.124784	1	2.70118	12	-6.22907e-05
2	0	0	1	0	251.366	0.45266	0.452604	-0.160379	1	2.70048	12	-7.2588e-05
2	0	0	1	0	255.985	0.406477	0.40678	-0.191493	1	2.69964	12	-7.78954e-05
2	0	0	0	0	260.603	0.360294	0.360386	-0.245676	1	2.69862	12	-8.85383e-05
2	0	0	1	0	265.221	0.314112	0.313683	-0.329552	1	2.69726	12	-0.000103375
2	0	0	1	0	269.839	0.267929	0.268408	-0.319076	1	2.69572	12	-8.56425e-05
2	0	0	0	0	274.458	0.221747	0.221642	-0.246058	1	2.69439	12	-5.45368e-05
2	0	0	1	0	279.076	0.175564	0.175238	-0.183371	1	2.69341	12	-3.21335e-05
2	0	0	1	0	283.694	0.129382	0.129875	-0.145582	1	2.69265	12	-1.89075e-05
2	0	0	0	0	288.312	0.0831989	0.0827855	-0.121395	1	2.69204	12	-1.00497e-05
2	0	0	1	0	292.931	0.0370164	0.0369333	-0.106391	1	2.69151	12	-3.92937e-06
2	0	0	0	1	297.118	0.00468859	0.00439189	-0.0921599	2	2.69109	12	-4.04756e-07
2	0	0	1	1	301.737	0.0508711	0.0509116	-0.0672499	2	2.69073	12	-3.4238e-06
2	0	0	1	1	306.355	0.0970541	0.0967979	-0.0526067	2	2.69045	12	-5.09222e-06
2	0	0	1	1	311.004	0.143544	0.142997	-0.0405404	2	2.69024	13	-5.79714e-06
2	0	0	1	1	315.622	0.189727	0.189583	-0.0294107	2	2.69008	13	-5.57579e-06
2	0	0	0	1	320.24	0.235909	0.235411	-0.0138446	2	2.68998	13	-3.25918e-06
2	1	0	1	1	324.859	0.282092	0.282481	0.016727	2	2.68999	13	4.72506e-06
2	1	0	1	1	329.508	0.328582	0.328402	0.0987973	2	2.69023	12	3.24452e-05
2	1	0	0	1	334.126	0.374765	0.374399	0.289903	2	2.6911	12	0.00010854
2	1	0	1	1	338.744	0.420948	0.420468	0.521326	2	2.693	12	0.000219201
2	1	0	1	1	343.362	0.46713	0.467166	0.663736	2	2.69582	12	0.000310075
2	1	0	0	1	347.981	0.513312	0.513752	0.643942	2	2.69891	12	0.000330826
2	1	0	1	1	352.599	0.559495	0.55981	0.595977	2	2.70178	12	0.000333634
2	1	0	1	1	357.217	0.605678	0.605998	0.934546	2	2.705	12	0.000566333
2	1	0	1	1	361.866	0.652168	0.651868	3.0168	2	2.7133	11	0.00196656
2	1	0	1	1	366.485	0.69835	0.697707	7.6569	2	2.73707	11	0.00534227
2	1	0	0	1	371.134	0.744841	0.745055	14.7739	2	2.78834	10	0.0110074
2	1	0	1	1	375.752	0.791024	0.790748	24.1494	2	2.87765	10	0.0190961
2	1	0	1	1	380.37	0.837205	0.836644	35.3135	2	3.01437	10	0.0295448
2	1	0	0	1	384.988	0.883389	0.884	48.2115	2	3.20694	10	0.0426189
2	1	0	1	1	389.607	0.929571	0.929968	63.0974	2	3.46406	10	0.0586785
2	1	0	1	1	394.225	0.975754	0.975996	78.1494	2	3.79039	10	0.0762736
2	1	0	1	1	398.351	0.982835	0.98275	79.5802	2	4.13071	10	0.0782075
2	1	0	0	1	402.969	0.936652	0.936622	64.0489	2	4.45984	10	0.0599896
2	1	0	1	1	407.587	0.890469	0.890731	49.2556	2	4.7205	10	0.0438734
2	1	0	1	1	412.206	0.844288	0.844537	36.3812	2	4.91732	10	0.0307253
2	1	0	0	1	416.824	0.798105	0.798025	25.4833	2	5.05919	10	0.0203363
2	1	0	1	1	421.442	0.751922	0.752504	16.7239	2	5.15607	10	0.0125848
2	1	0	1	1	426.06	0.70574	0.705219	9.64612	2	5.2161	10	0.00680263
2	1	0	1	1	430.694	0.659404	0.659666	4.55389	2	5.24813	10	0.00300405
2	1	0	1	1	435.328	0.613067	0.613287	1.46531	2	5.26129	11	0.000898657
2	1	0	0	1	439.977	0.566576	0.566591	0.168368	2	5.26444	12	9.5396e-05
2	0	0	1	1	444.595	0.520394	0.520406	-0.107835	2	5.26436	12	-5.61178e-05
2	0	0	1	1	449.213	0.474212	0.47382	-0.159091	2	5.26369	12	-7.53804e-05
[...]
2	0	0	1	1	463.068	0.335664	0.33568	-0.306923	2	5.26068	12	-0.000103028
2	0	0	0	1	467.686	0.289481	0.289603	-0.34429	2	5.25912	12	-9.97075e-05
2	0	0	1	1	472.305	0.243298	0.243249	-0.289215	2	5.25762	12	-7.03512e-05
2	0	0	1	1	476.923	0.197116	0.196811	-0.209886	2	5.25647	12	-4.1308e-05
2	0	0	1	1	481.541	0.150934	0.150748	-0.158202	2	5.25562	12	-2.38487e-05
2	0	0	1	1	486.159	0.104751	0.104749	-0.12704	2	5.25497	12	-1.33073e-05
2	0	0	1	1	490.778	0.0585673	0.0584202	-0.106508	2	5.25443	12	-6.2222e-06
2	0	0	1	1	495.396	0.0123859	0.0124283	-0.0926434	2	5.25397	12	-1.1514e-06
2	0	0	0	0	499.584	0.0293193	0.0290256	-0.0696978	3	5.25363	12	-2.02302e-06
2	0	0	1	0	504.202	0.0755018	0.0756358	-0.0535759	3	5.25335	12	-4.05226e-06
2	0	0	1	0	508.82	0.121683	0.121564	-0.042486	3	5.25313	12	-5.16476e-06
2	0	0	0	0	513.438	0.167867	0.168246	-0.0326162	3	5.25296	12	-5.48756e-06
2	0	0	1	0	518.057	0.21405	0.214543	-0.0215513	3	5.25284	12	-4.62368e-06
2	0	0	1	0	522.675	0.260232	0.260435	-0.00279474	3	5.25278	12	-7.27846e-07
2	1	0	0	0	527.293	0.306415	0.306251	0.0389524	3	5.25285	12	1.19292e-05
2	1	0	1	0	531.911	0.352597	0.35201	0.157173	3	5.25327	12	5.53265e-05
2	1	0	1	0	536.53	0.39878	0.39904	0.359794	3	5.25447	12	0.000143572
2	1	0	1	0	541.148	0.444961	0.445127	0.552162	3	5.25661	12	0.000245783
2	1	0	1	0	545.766	0.491145	0.491532	0.615527	3	5.2594	12	0.000302551
2	1	0	1	0	550.384	0.537328	0.537501	0.555052	3	5.26215	12	0.000298341
2	1	0	1	0	555.003	0.58351	0.583417	0.577268	3	5.26468	12	0.000336788
2	1	0	1	0	559.621	0.629692	0.629447	1.52761	3	5.26894	11	0.00096155
2	1	0	0	0	564.239	0.675875	0.676337	4.47981	3	5.28203	11	0.00302986
2	1	0	1	0	568.857	0.722058	0.722006	9.61944	3	5.31385	11	0.00694529
2	1	0	1	0	573.476	0.768239	0.768268	17.018	3	5.37461	10	0.0130744
2	1	0	0	0	578.094	0.814422	0.814566	26.4789	3	5.47439	10	0.0215688
2	1	0	1	0	582.712	0.860605	0.860416	37.8575	3	5.62244	10	0.0325732
2	1	0	1	0	587.33	0.906788	0.907196	50.9013	3	5.827	10	0.0461775
2	1	0	0	0	591.949	0.95297	0.953203	65.1354	3	6.09479	10	0.0620872
2	1	0	1	0	596.521	0.998691	0.998964	79.7402	3	6.4264	10	0.0796576
2	1	0	1	0	600.816	0.958204	0.958003	66.0733	3	6.73974	10	0.0632984
2	1	0	1	0	605.434	0.912021	0.911746	52.0803	3	7.01329	10	0.047484
2	1	0	1	0	610.053	0.86584	0.865558	38.9428	3	7.22259	10	0.0337072
2	1	0	1	0	614.671	0.819657	0.819902	27.9333	3	7.37673	10	0.0229025
2	1	0	1	0	619.289	0.773473	0.773811	18.4083	3	7.48284	10	0.0142446
2	1	0	1	0	623.907	0.727292	0.726966	11.0052	3	7.54985	10	0.0080004
2	1	0	1	0	628.526	0.681109	0.681043	5.665	3	7.58748	10	0.00385811
2	1	0	0	0	633.175	0.634618	0.634373	2.25352	3	7.60513	11	0.00142957
2	1	0	1	0	637.793	0.588435	0.588411	0.514627	3	7.61089	11	0.000302812
2	0	0	1	0	642.442	0.541946	0.541293	-0.0319088	3	7.61167	12	-1.7272e-05
2	0	0	0	0	647.06	0.495763	0.495932	-0.131872	3	7.6112	12	-6.53995e-05
2	0	0	1	0	651.679	0.44958	0.449601	-0.160333	3	7.6105	12	-7.20858e-05
2	0	0	1	0	656.297	0.403397	0.403924	-0.190863	3	7.60967	12	-7.70942e-05
2	0	0	1	0	660.915	0.357216	0.357485	-0.244617	3	7.60866	12	-8.74467e-05
2	0	0	1	0	665.533	0.311033	0.311023	-0.311858	3	7.60734	12	-9.69952e-05
2	0	0	0	0	670.152	0.26485	0.264841	-0.298469	3	7.60589	12	-7.90468e-05
2	0	0	1	0	674.77	0.218668	0.218178	-0.228859	3	7.60466	12	-4.9932e-05
2	0	0	1	0	679.388	0.172485	0.172653	-0.169331	3	7.60375	12	-2.92355e-05
2	0	0	0	0	684.006	0.126303	0.126074	-0.133141	3	7.60305	12	-1.67855e-05
2	0	0	1	0	688.625	0.0801194	0.0803699	-0.110032	3	7.60249	12	-8.84323e-06
2	0	0	1	0	693.243	0.033938	0.0339633	-0.0938449	3	7.60202	12	-3.18728e-06
2	0	0	0	0	696.621	-8.36053e-05	0.000219945	-0.0890439	3	7.60171	12	-1.95848e-08