Folder: EC-Lab-Processing/Data (part 5)

File: 2022_01_11 FeNx Ti electrode set2_03_CP_C05.mpt
EC-Lab ASCII FILE
Nb header lines : 52

Chronopotentiometry

Run on channel : 5 (SN 30436)
User :
CE vs. WE compliance from -10 V to 10 V
Electrode connection : standard
Potential control : Ewe
Ewe ctrl range : min = -2,50 V, max = 2,50 V
Safety Limits :
	Do not start on E overload
Acquisition started on : 01/11/2023 12:58:29.644
Loaded Setting File :  C:\Users\grupogalan\Documents\EC-Lab\Data\Scott\2022_01_05 CoNx Ti electrode1 exp2.mps
Saved on :
	File : 2022_01_11 FeNx Ti electrode set2_03_CP_C05.mpr
	Directory : C:\Users\grupogalan\Documents\EC-Lab\Data\Scott\
	Host : 169.254.104.159
Device : VSP (SN 1176)
Address : USB
EC-Lab for windows v11.46 (software)
Internet server v11.40 (firmware)
Command interpretor v11.40 (firmware)
Electrode material :
Initial state :
Electrolyte :
Comments :
Electrode surface area : 0,000 cm²
Characteristic mass : 0,001 g
Equivalent Weight : 0,000 g/eq.
Density : 0,000 g/cm3
Volume (V) : 0,001 cm³
Cycle Definition : Charge/Discharge alternance
Is                  10,000
unit Is             mA
vs.                 <None>
ts (h:m:s)          2:00:0,0000
EM (V)              pass
dQM                 20,000
unit dQM            mA.h
record              <Ewe>
dEs (mV)            0,00
dts (s)             1,0000
E range min (V)     -2,500
E range max (V)     2,500
I Range             10 mA
Bandwidth           5
goto Ns'            0
nc cycles           0

mode	ox/red	error	control changes	Ns changes	counter inc.	Ns	time/s	control/mA	<Ewe>/V	I/mA	dQ/C	(Q-Qo)/C	half cycle	Q charge/discharge/mA.h	I Range	Energy charge/W.h	Energy discharge/W.h	Capacitance charge/µF	Capacitance discharge/µF	Q discharge/mA.h	Q charge/mA.h	Capacity/mA.h	Efficiency/%	cycle number	P/W
1	1	0	0	0	0	0	5,020492685333316E+003	1,0000000E+001	1,0565331E+000	9,9991283E+000	9,4749536E-003	9,4749536E-003	0	2,631931565701962E-003	11	2,780722811416281E-006	0,000000000000000E+000	0,000000000000000E+000	0,000000000000000E+000	0,000000000000000E+000	2,631931565701962E-003	2,631931565701962E-003	0,0000000E+000	0,000000000000000E+000	1,0564410E-002
1	1	0	0	0	0	0	5,275492682245982E+003	1,0000000E+001	1,1238006E+000	9,9986830E+000	2,5591462E+000	2,5591462E+000	0	7,108739349577162E-001	11	7,616836869549303E-004	0,000000000000000E+000	3,804429707893762E+007	0,000000000000000E+000	0,000000000000000E+000	7,108739349577162E-001	7,108739349577162E-001	0,0000000E+000	0,000000000000000E+000	1,1236526E-002
1	1	0	0	0	0	0	5,530492679158648E+003	1,0000000E+001	1,3926991E+000	9,9994459E+000	5,1088052E+000	5,1088052E+000	0	1,419112549887763E+000	11	1,647692936191482E-003	0,000000000000000E+000	1,519726805119922E+007	0,000000000000000E+000	0,000000000000000E+000	1,419112549887763E+000	1,419112549887763E+000	0,0000000E+000	0,000000000000000E+000	1,3926219E-002
1	1	0	0	0	0	0	5,785492676071313E+003	1,0000000E+001	1,5796899E+000	9,9991283E+000	7,6584711E+000	7,6584711E+000	0	2,127353085411920E+000	11	2,709042627093087E-003	0,000000000000000E+000	1,463896036897778E+007	0,000000000000000E+000	0,000000000000000E+000	2,127353085411920E+000	2,127353085411920E+000	0,0000000E+000	0,000000000000000E+000	1,5795521E-002
1	1	0	0	0	0	0	6,040492672983979E+003	1,0000000E+001	1,7434516E+000	9,9981737E+000	1,0208131E+001	1,0208131E+001	0	2,835591899024116E+000	11	3,883339704508796E-003	0,000000000000000E+000	1,486075987150942E+007	0,000000000000000E+000	0,000000000000000E+000	2,835591899024116E+000	2,835591899024116E+000	0,0000000E+000	0,000000000000000E+000	1,7431332E-002
1	1	0	0	0	0	0	6,295492669896645E+003	1,0000000E+001	1,8139396E+000	9,9990644E+000	1,2757804E+001	1,2757804E+001	0	3,543834421369764E+000	11	5,129573103425569E-003	0,000000000000000E+000	1,684406506813632E+007	0,000000000000000E+000	0,000000000000000E+000	3,543834421369764E+000	3,543834421369764E+000	0,0000000E+000	0,000000000000000E+000	1,8137699E-002
1	1	0	0	0	0	0	6,550492666809310E+003	1,0000000E+001	1,8814791E+000	9,9986830E+000	1,5307476E+001	1,5307476E+001	0	4,252076678805881E+000	11	6,427572974838825E-003	0,000000000000000E+000	1,855572994165299E+007	0,000000000000000E+000	0,000000000000000E+000	4,252076678805881E+000	4,252076678805881E+000	0,0000000E+000	0,000000000000000E+000	1,8812314E-002
1	1	0	0	0	0	0	6,805492663721976E+003	1,0000000E+001	1,8852817E+000	9,9983644E+000	1,7857138E+001	1,7857138E+001	0	4,960316022237142E+000	11	7,752546555585755E-003	0,000000000000000E+000	2,154711094444557E+007	0,000000000000000E+000	0,000000000000000E+000	4,960316022237142E+000	4,960316022237142E+000	0,0000000E+000	0,000000000000000E+000	1,8849734E-002
1	1	0	0	0	0	0	7,060492660634642E+003	1,0000000E+001	1,9667032E+000	9,9985552E+000	2,0406797E+001	2,0406797E+001	0	5,668554835849339E+000	11	9,105241400751781E-003	0,000000000000000E+000	2,242086165662090E+007	0,000000000000000E+000	0,000000000000000E+000	5,668554835849339E+000	5,668554835849339E+000	0,0000000E+000	0,000000000000000E+000	1,9664191E-002
1	1	0	0	0	0	0	7,315492657547307E+003	1,0000000E+001	1,8862463E+000	9,9991913E+000	2,2956459E+001	2,2956459E+001	0	6,376794179280599E+000	11	1,046609417038204E-002	0,000000000000000E+000	2,766794398790024E+007	0,000000000000000E+000	0,000000000000000E+000	6,376794179280599E+000	6,376794179280599E+000	0,0000000E+000	0,000000000000000E+000	1,8860938E-002
1	1	0	0	0	0	0	7,570492654459973E+003	1,0000000E+001	1,9134235E+000	9,9991283E+000	2,5506123E+001	2,5506123E+001	0	7,085034052530925E+000	11	1,184309557247255E-002	0,000000000000000E+000	2,976590868430374E+007	0,000000000000000E+000	0,000000000000000E+000	7,085034052530925E+000	7,085034052530925E+000	0,0000000E+000	0,000000000000000E+000	1,9132568E-002
1	1	0	0	0	0	0	7,825492651372639E+003	1,0000000E+001	1,9026135E+000	9,9979820E+000	2,8055784E+001	2,8055784E+001	0	7,793273395962185E+000	11	1,321940131356179E-002	0,000000000000000E+000	3,315971328805032E+007	0,000000000000000E+000	0,000000000000000E+000	7,793273395962185E+000	7,793273395962185E+000	0,0000000E+000	0,000000000000000E+000	1,9022295E-002
1	1	0	0	0	0	0	8,080492648285304E+003	1,0000000E+001	1,9033591E+000	9,9986830E+000	3,0605444E+001	3,0605444E+001	0	8,501512209574381E+000	11	1,459003378583031E-002	0,000000000000000E+000	3,614136256771304E+007	0,000000000000000E+000	0,000000000000000E+000	8,501512209574381E+000	8,501512209574381E+000	0,0000000E+000	0,000000000000000E+000	1,9031083E-002
1	1	0	0	0	0	0	8,335492645197985E+003	1,0000000E+001	1,9452138E+000	9,9991283E+000	3,3155102E+001	3,3155102E+001	0	9,209750493367514E+000	11	1,595745246072584E-002	0,000000000000000E+000	3,730822769884721E+007	0,000000000000000E+000	0,000000000000000E+000	9,209750493367514E+000	9,209750493367514E+000	0,0000000E+000	0,000000000000000E+000	1,9450443E-002
1	1	0	0	0	0	0	8,590492642110650E+003	1,0000000E+001	1,9186521E+000	9,9989376E+000	3,5704769E+001	3,5704769E+001	0	9,917991426255968E+000	11	1,733423825100137E-002	0,000000000000000E+000	4,141513041107149E+007	0,000000000000000E+000	0,000000000000000E+000	9,917991426255968E+000	9,917991426255968E+000	0,0000000E+000	0,000000000000000E+000	1,9184481E-002
[...]
1	1	0	0	0	0	0	1,012049262358662E+004	1,0000000E+001	1,9956228E+000	9,9986830E+000	5,1002785E+001	5,1002785E+001	0	1,416744020250109E+001	11	2,565710243703596E-002	0,000000000000000E+000	5,431087906236056E+007	0,000000000000000E+000	0,000000000000000E+000	1,416744020250109E+001	1,416744020250109E+001	0,0000000E+000	0,000000000000000E+000	1,9953599E-002
1	1	0	0	0	0	0	1,037549262049928E+004	1,0000000E+001	1,9998505E+000	9,9978561E+000	5,3552456E+001	5,3552456E+001	0	1,487568219502767E+001	11	2,705304713153761E-002	0,000000000000000E+000	5,677034595709404E+007	0,000000000000000E+000	0,000000000000000E+000	1,487568219502767E+001	1,487568219502767E+001	0,0000000E+000	0,000000000000000E+000	1,9994218E-002
1	1	0	0	0	0	0	1,063049261741195E+004	1,0000000E+001	1,9943969E+000	9,9980469E+000	5,6102127E+001	5,6102127E+001	0	1,558392418755425E+001	11	2,844869297952606E-002	0,000000000000000E+000	5,981905418988704E+007	0,000000000000000E+000	0,000000000000000E+000	1,558392418755425E+001	1,558392418755425E+001	0,0000000E+000	0,000000000000000E+000	1,9940075E-002
1	1	0	0	0	0	0	1,088549261432461E+004	1,0000000E+001	2,0209124E+000	9,9983015E+000	5,8651798E+001	5,8651798E+001	0	1,629216618008084E+001	11	2,984242294170272E-002	0,000000000000000E+000	6,081818388588098E+007	0,000000000000000E+000	0,000000000000000E+000	1,629216618008084E+001	1,629216618008084E+001	0,0000000E+000	0,000000000000000E+000	2,0205691E-002
1	1	0	0	0	0	0	1,114049261123728E+004	1,0000000E+001	2,0518315E+000	9,9986830E+000	6,1201477E+001	6,1201477E+001	0	1,700041029188368E+001	11	3,124024880483959E-002	0,000000000000000E+000	6,149058205560123E+007	0,000000000000000E+000	0,000000000000000E+000	1,700041029188368E+001	1,700041029188368E+001	0,0000000E+000	0,000000000000000E+000	2,0515613E-002
1	1	0	0	0	0	0	1,139549260814994E+004	1,0000000E+001	1,9831985E+000	9,9981737E+000	6,3751144E+001	6,3751144E+001	0	1,770865122477214E+001	11	3,263601809750440E-002	0,000000000000000E+000	6,879629116247609E+007	0,000000000000000E+000	0,000000000000000E+000	1,770865122477214E+001	1,770865122477214E+001	0,0000000E+000	0,000000000000000E+000	1,9828364E-002
1	1	0	0	0	0	0	1,165049260506261E+004	1,0000000E+001	1,9659544E+000	9,9991913E+000	6,6300819E+001	6,6300819E+001	0	1,841689427693685E+001	11	3,403553701141847E-002	0,000000000000000E+000	7,290440370601900E+007	0,000000000000000E+000	0,000000000000000E+000	1,841689427693685E+001	1,841689427693685E+001	0,0000000E+000	0,000000000000000E+000	1,9657955E-002
1	1	0	0	0	0	0	1,190549260197527E+004	1,0000000E+001	1,8972127E+000	9,9988098E+000	6,8850494E+001	6,8850494E+001	0	1,912513732910156E+001	11	3,542250554278858E-002	0,000000000000000E+000	8,189860995228110E+007	0,000000000000000E+000	0,000000000000000E+000	1,912513732910156E+001	1,912513732910156E+001	0,0000000E+000	0,000000000000000E+000	1,8969869E-002
1	1	0	0	0	0	0	1,216049259888794E+004	1,0000000E+001	1,9595013E+000	9,9993191E+000	7,1400177E+001	7,1400177E+001	0	1,983338250054253E+001	11	3,681332383187638E-002	0,000000000000000E+000	7,907275085858798E+007	0,000000000000000E+000	0,000000000000000E+000	1,983338250054253E+001	1,983338250054253E+001	0,0000000E+000	0,000000000000000E+000	1,9593678E-002
1	1	0	0	0	0	0	1,221954519817300E+004	1,0000000E+001	1,9730091E+000	9,9988098E+000	7,1990631E+001	7,1990631E+001	0	1,999739752875434E+001	11	3,713098294310868E-002	0,000000000000000E+000	7,855157169172882E+007	0,000000000000000E+000	0,000000000000000E+000	1,999739752875434E+001	1,999739752875434E+001	0,0000000E+000	0,000000000000000E+000	1,9727742E-002

File: 2025-02-10 exp 1 CV with stirring_C05.mpt
EC-Lab ASCII FILE
Nb header lines : 59

Cyclic Voltammetry

Run on channel : 5 (SN 39658)
User :
CE vs. WE compliance from -10 V to 10 V
Electrode connection : standard
Potential control : Ewe
Ewe ctrl range : min = -2.50 V, max = 2.50 V
Safety Limits :
	Do not start on E overload
Acquisition started on : 02/10/2025 12:36:52.263
Loaded Setting File :  NONE
Saved on :
	File : 2025-02-10 exp 1 CV with stirring_C05.mpr
	Directory : C:\Users\thefo\OneDrive\Documents\EC-Lab\Data\CHEM 451\
	Host : 172.24.113.132
Device : VSP (SN 1910)
Address : USB
EC-Lab for windows v11.46 (software)
Internet server v11.40 (firmware)
Command interpretor v11.40 (firmware)
Electrode material : Au/Pd
Initial state :
Electrolyte : NaCl (0.2M)
Comments : Fe(CN)63-/Fe(CN)64- 5.10-3 M
Current amplifier : VSPB-4A
Reference electrode : SCE Saturated Calomel Electrode (0.241 V)
Electrode surface area : 0.001 cm²
Characteristic mass : 0.001 g
Equivalent Weight : 0.000 g/eq.
Density : 0.000 g/cm3
Volume (V) : 0.001 cm³
Cycle Definition : Charge/Discharge alternance
Ei (V)              0.000
vs.                 Eoc
dE/dt               100.000
dE/dt unit          mV/s
E1 (V)              -0.500
vs.                 Ref
Step percent        50
N                   10
E range min (V)     -2.500
E range max (V)     2.500
I Range             Auto
I Range min         Unset
I Range max         Unset
I Range init        Unset
Bandwidth           4
E2 (V)              1.000
vs.                 Ref
nc cycles           2
Reverse Scan        1
Ef (V)              0.000
vs.                 Eoc

mode	ox/red	error	control changes	counter inc.	time/s	control/V	Ewe/V	<I>/mA	cycle number	(Q-Qo)/C	I Range	P/W
2	1	0	0	0	0.000000000000000E+000	0.377106	0.377117	1.5505e-05	1	0.0000000E+000	14	5.84719e-09
2	0	0	1	0	0.5657	0.320538	0.320772	-0.00437024	1	-1.54164e-06	14	-1.40185e-06
2	0	0	1	0	1.1659	0.260519	0.260721	-0.014867	1	-6.77836e-06	13	-3.87614e-06
2	0	0	1	0	1.7361	0.2035	0.203689	-0.0418147	1	-2.22492e-05	13	-8.51718e-06
2	0	0	1	0	2.3063	0.146482	0.146619	-0.0600209	1	-5.22186e-05	13	-8.80019e-06
2	0	0	1	0	2.8765	0.0894633	0.0896252	-0.0692138	1	-8.83147e-05	13	-6.2033e-06
2	0	0	1	0	3.4467	0.0324448	0.0326156	-0.0672146	1	-0.000127683	13	-2.19225e-06
2	0	0	1	0	4.0169	-0.0245737	-0.0244586	-0.06618	1	-0.000167827	13	1.61867e-06
2	0	0	1	0	4.5871	-0.0815922	-0.0815286	-0.0732336	1	-0.000208829	13	5.97063e-06
2	0	0	1	0	5.1573	-0.138611	-0.138541	-0.0701187	1	-0.000249579	13	9.71434e-06
2	0	0	1	0	5.7275	-0.195629	-0.195555	-0.0736383	1	-0.000292167	13	1.44003e-05
2	0	0	1	0	6.2977	-0.252648	-0.252581	-0.0781921	1	-0.00033625	13	1.97498e-05
2	0	0	1	0	6.8679	-0.309666	-0.309571	-0.081604	1	-0.000380857	13	2.52622e-05
2	0	0	1	0	7.4381	-0.366685	-0.366622	-0.0836585	1	-0.000427289	13	3.0671e-05
2	0	0	1	0	8.0081	-0.423703	-0.423645	-0.0906804	1	-0.000477457	13	3.84163e-05
2	0	0	1	0	8.5783	-0.480722	-0.480653	-0.0997111	1	-0.00053207	13	4.79264e-05
2	0	0	1	0	9.1371	-0.463416	-0.463274	-0.0894039	1	-0.000584639	13	4.14185e-05
2	0	0	1	0	9.7073	-0.406397	-0.406292	-0.076007	1	-0.000630116	13	3.0881e-05
2	0	0	1	0	10.2775	-0.349379	-0.3492	-0.0643127	1	-0.000669492	13	2.2458e-05
2	0	0	1	0	10.8477	-0.29236	-0.2922	-0.058443	1	-0.000704579	13	1.7077e-05
2	0	0	1	0	11.4179	-0.235342	-0.235173	-0.0577623	1	-0.000737874	13	1.35841e-05
2	0	0	1	0	11.9881	-0.178324	-0.178169	-0.0571087	1	-0.000771043	13	1.0175e-05
2	0	0	1	0	12.5581	-0.121305	-0.121135	-0.0521868	1	-0.000802613	13	6.32164e-06
2	0	0	1	0	13.1283	-0.0642866	-0.0641614	-0.0546448	1	-0.000832636	13	3.50609e-06
2	0	0	1	0	13.6985	-0.00726807	-0.00708819	-0.0515917	1	-0.000861976	13	3.65692e-07
2	0	0	1	0	14.2687	0.0497504	0.049968	-0.0464421	1	-0.000889338	13	-2.32062e-06
2	0	0	1	0	14.8389	0.106769	0.106986	-0.040173	1	-0.000916262	13	-4.29795e-06
2	0	0	1	0	15.4091	0.163787	0.164059	-0.0316718	1	-0.000937578	13	-5.19605e-06
2	0	0	1	0	15.9793	0.220806	0.221034	-0.00549643	1	-0.000947863	13	-1.2149e-06
2	1	0	1	0	16.6095	0.283826	0.284093	0.0111415	1	-0.000944437	13	3.16523e-06
2	1	0	1	0	17.1797	0.340845	0.34111	0.0129418	1	-0.000937239	13	4.41457e-06
2	1	0	1	0	17.7499	0.397863	0.398082	0.0135226	1	-0.000929493	13	5.38309e-06
2	1	0	1	0	18.3201	0.454882	0.455095	0.0134309	1	-0.00092175	13	6.11233e-06
2	1	0	1	0	18.8903	0.5119	0.512123	0.0133264	1	-0.000914027	13	6.82477e-06
2	1	0	1	0	19.4605	0.568918	0.569195	0.0136118	1	-0.000906198	13	7.74775e-06
2	1	0	1	0	20.0307	0.625937	0.626217	0.0141419	1	-0.000898134	13	8.85589e-06
2	1	0	1	0	20.6007	0.682955	0.68322	0.0151295	1	-0.000889696	13	1.03368e-05
2	1	0	1	0	21.1709	0.739974	0.740251	0.0163628	1	-0.000880738	13	1.21126e-05
2	1	0	1	0	21.7411	0.796992	0.79727	0.0175294	1	-0.000871091	13	1.39756e-05
2	1	0	1	0	22.3113	0.854011	0.854315	0.0192841	1	-0.000860588	13	1.64747e-05
2	1	0	1	0	22.8815	0.911029	0.911338	0.0217329	1	-0.000848989	13	1.9806e-05
2	1	0	1	0	23.4517	0.968048	0.96834	0.0243093	1	-0.000836086	13	2.35397e-05
2	1	0	1	1	24.0075	0.97645	0.976661	0.0160524	1	-0.00082364	13	1.56778e-05
2	1	0	1	1	24.5777	0.919432	0.91966	0.007862	1	-0.000817141	13	7.23037e-06
2	1	0	1	1	25.1779	0.859413	0.859662	0.00376792	1	-0.000813733	14	3.23914e-06
2	1	0	1	1	25.7481	0.802394	0.802538	0.00165886	1	-0.000812338	14	1.3313e-06
2	0	0	1	1	26.3183	0.745376	0.745514	-2.15779e-07	1	-0.000812083	14	-1.60866e-10
2	0	0	1	1	26.8883	0.688357	0.688598	-0.00153402	1	-0.000812632	14	-1.05632e-06
2	0	0	1	1	27.4585	0.631339	0.631498	-0.00279484	1	-0.000813799	14	-1.76494e-06
2	0	0	1	1	28.0287	0.57432	0.574462	-0.00353542	1	-0.000815465	14	-2.03096e-06
2	0	0	1	1	28.5989	0.517302	0.517496	-0.00402293	1	-0.000817578	14	-2.08185e-06
2	0	0	1	1	29.1691	0.460283	0.460527	-0.00469984	1	-0.00082011	14	-2.1644e-06
2	0	0	1	1	29.7393	0.403265	0.403394	-0.00568147	1	-0.000823077	14	-2.29187e-06
2	0	0	1	1	30.2965	0.347547	0.347675	-0.00674623	2	-0.000826549	14	-2.34549e-06
2	0	0	1	1	30.8967	0.287527	0.287694	-0.0121356	2	-0.000831962	13	-3.49134e-06
2	0	0	1	1	31.4669	0.230509	0.230715	-0.0303617	2	-0.000843401	13	-7.00489e-06
2	0	0	1	1	32.0371	0.17349	0.173666	-0.0601482	2	-0.000869874	13	-1.04457e-05
2	0	0	1	1	32.6073	0.116472	0.116614	-0.0691342	2	-0.000907932	13	-8.062e-06
2	0	0	1	1	33.1775	0.0594535	0.0595651	-0.0768956	2	-0.0009488	13	-4.58029e-06
2	0	0	1	1	33.7477	0.00243507	0.00258739	-0.0762147	2	-0.000991529	13	-1.97197e-07
2	0	0	1	1	34.3177	-0.0545834	-0.0545282	-0.0728872	2	-0.00103489	13	3.97441e-06
2	0	0	1	1	34.8879	-0.111602	-0.111508	-0.0758017	2	-0.00107784	13	8.4525e-06
2	0	0	1	1	35.4581	-0.16862	-0.168543	-0.0764302	2	-0.00112045	13	1.28818e-05
2	0	0	1	1	36.0283	-0.225639	-0.225555	-0.0761244	2	-0.00116455	13	1.71702e-05
2	0	0	1	1	36.5985	-0.282657	-0.282552	-0.0807122	2	-0.00120812	13	2.28054e-05
2	0	0	1	1	37.1687	-0.339676	-0.33965	-0.0829084	2	-0.00125352	13	2.81599e-05
2	0	0	1	1	37.7389	-0.396694	-0.396606	-0.0846292	2	-0.00130174	13	3.35644e-05
2	0	0	1	1	38.3091	-0.453713	-0.453633	-0.0907644	2	-0.00135161	13	4.11738e-05
2	0	0	1	1	38.8677	-0.490425	-0.49027	-0.0888643	2	-0.00140461	13	4.35675e-05
2	0	0	1	1	39.4379	-0.433406	-0.433198	-0.0785562	2	-0.00144944	13	3.40304e-05
2	0	0	1	1	40.0081	-0.376388	-0.376222	-0.0686564	2	-0.00148915	13	2.58301e-05
2	0	0	1	1	40.5783	-0.319369	-0.319227	-0.0615139	2	-0.00152628	13	1.96369e-05
[...]
2	1	0	1	1	46.8503	0.307834	0.308075	0.0122136	2	-0.00178562	13	3.76272e-06
2	1	0	1	1	47.4205	0.364852	0.365077	0.0133265	2	-0.00177803	13	4.8652e-06
2	1	0	1	1	47.9907	0.421871	0.422187	0.0135905	2	-0.00177019	13	5.73773e-06
2	1	0	1	1	48.5609	0.478889	0.47912	0.0137215	2	-0.00176238	13	6.57423e-06
2	1	0	1	1	49.1311	0.535908	0.536153	0.0136117	2	-0.00175462	13	7.29797e-06
2	1	0	1	1	49.7013	0.592926	0.593146	0.0137257	2	-0.00174684	13	8.14131e-06
2	1	0	1	1	50.2715	0.649945	0.65021	0.0142273	2	-0.00173899	13	9.25073e-06
2	1	0	1	1	50.8417	0.706963	0.707214	0.0145367	2	-0.00173097	13	1.02806e-05
2	1	0	1	1	51.4119	0.763982	0.764227	0.0146649	2	-0.00172267	13	1.12073e-05
2	1	0	1	1	51.9821	0.821	0.821283	0.0154411	2	-0.00171395	13	1.26815e-05
2	1	0	1	1	52.5523	0.878019	0.87833	0.0169544	2	-0.00170457	13	1.48916e-05
2	1	0	1	1	53.1225	0.935037	0.935377	0.0190968	2	-0.00169422	13	1.78627e-05
2	1	0	1	1	53.6925	0.992055	0.992383	0.0222619	2	-0.00168251	13	2.20923e-05
2	1	0	1	0	54.2483	0.952443	0.95266	0.00981104	2	-0.00167397	13	9.34658e-06
2	1	0	1	0	54.8185	0.895424	0.895673	0.00489698	2	-0.00166985	13	4.38609e-06
2	1	0	1	0	55.4187	0.835405	0.835584	0.0021762	2	-0.00166785	14	1.81839e-06
2	1	0	1	0	55.9889	0.778386	0.778595	0.000448955	2	-0.00166731	14	3.49554e-07
2	0	0	1	0	56.5591	0.721368	0.721618	-0.00104475	2	-0.00166763	14	-7.53911e-07
2	0	0	1	0	57.1293	0.664349	0.66454	-0.00238845	2	-0.0016686	14	-1.58722e-06
2	0	0	1	0	57.6995	0.607331	0.607489	-0.00326708	2	-0.00167008	14	-1.98471e-06
2	0	0	1	0	58.2697	0.550312	0.550534	-0.00364667	2	-0.001672	14	-2.00761e-06
2	0	0	1	0	58.8399	0.493294	0.493474	-0.00417043	2	-0.00167433	14	-2.058e-06
2	0	0	1	0	59.4101	0.436276	0.436464	-0.00510351	2	-0.00167706	14	-2.2275e-06
2	0	0	1	0	59.9801	0.379257	0.379395	-0.00620381	2	-0.00168025	14	-2.35369e-06
2	0	0	1	0	60.5373	0.323539	0.323706	-0.00832135	3	-0.00168417	14	-2.69367e-06
2	0	0	1	0	61.1375	0.26352	0.263666	-0.0175943	3	-0.00169128	13	-4.63902e-06
2	0	0	1	0	61.7077	0.206501	0.206719	-0.0443158	3	-0.00170822	13	-9.16092e-06
2	0	0	1	0	62.2779	0.149483	0.149676	-0.0658017	3	-0.00173989	13	-9.84895e-06
2	0	0	1	0	62.8481	0.0924642	0.0925798	-0.0720972	3	-0.00177971	13	-6.67474e-06
2	0	0	1	0	63.4183	0.0354458	0.0355809	-0.06961	3	-0.0018203	13	-2.47679e-06
2	0	0	1	0	63.9885	-0.0215727	-0.0214817	-0.0723979	3	-0.00186184	13	1.55523e-06
2	0	0	1	0	64.5587	-0.0785912	-0.0785188	-0.0753943	3	-0.00190391	13	5.91987e-06
2	0	0	1	0	65.1289	-0.13561	-0.135535	-0.0770283	3	-0.00194716	13	1.044e-05
2	0	0	1	0	65.6991	-0.192628	-0.192546	-0.0724984	3	-0.00198965	13	1.39593e-05
2	0	0	1	0	66.2693	-0.249647	-0.249579	-0.0781125	3	-0.00203256	13	1.94953e-05
2	0	0	1	0	66.8395	-0.306665	-0.306611	-0.0777509	3	-0.00207547	13	2.38393e-05
2	0	0	1	0	67.4096	-0.363686	-0.363601	-0.0835083	3	-0.00212185	13	3.03637e-05
2	0	0	1	0	67.9797	-0.420702	-0.420606	-0.0834746	3	-0.0021696	13	3.51099e-05
2	0	0	1	0	68.5499	-0.477721	-0.47762	-0.092188	3	-0.0022201	13	4.40308e-05
2	0	0	1	0	69.1087	-0.466417	-0.466247	-0.0821369	3	-0.00226949	13	3.82961e-05
2	0	0	1	0	69.6789	-0.409398	-0.409247	-0.0700437	3	-0.00231259	13	2.86651e-05
2	0	0	1	0	70.2491	-0.35238	-0.35224	-0.0600623	3	-0.00235011	13	2.11564e-05
2	0	0	1	0	70.8193	-0.295361	-0.295186	-0.0590797	3	-0.00238423	13	1.74395e-05
2	0	0	1	0	71.3895	-0.238343	-0.238205	-0.0575579	3	-0.00241682	13	1.37106e-05
2	0	0	1	0	71.9595	-0.181325	-0.181147	-0.0548713	3	-0.0024482	13	9.93977e-06
2	0	0	1	0	72.5297	-0.124306	-0.124144	-0.0561578	3	-0.00247926	13	6.97164e-06
2	0	0	0	0	72.9828	-0.0789413	-0.0787363	-0.0490991	3	-0.00250293	13	3.86588e-06