Folder: EC-Lab-Processing/Data_1mg (part 6)

File: 2022_01_27 Ni60Co30Fe10Ox 1mg ref309__01_CV_C02.mpt
EC-Lab ASCII FILE
Nb header lines : 57

Cyclic Voltammetry

Run on channel : 2 (SN 12477)
User :
CE vs. WE compliance from -10 V to 10 V
Electrode connection : standard
Potential control : Ewe
Ewe ctrl range : min = -2.50 V, max = 2.50 V
Safety Limits :
	Do not start on E overload
Acquisition started on : 01/27/2023 11:35:24.466
Loaded Setting File :  C:\Users\grupogalan\Documents\EC-Lab\Data\Scott\_cyclic_pause_tafel.mps
Saved on :
	File : 2022_01_27 Ni60Co30Fe10Ox 1mg ref309__01_CV_C02.mpr
	Directory : C:\Users\grupogalan\Documents\EC-Lab\Data\Scott\
	Host : 169.254.104.159
Device : VSP (SN 1176)
Address : USB
EC-Lab for windows v11.46 (software)
Internet server v11.40 (firmware)
Command interpretor v11.40 (firmware)
Electrode material :
Initial state :
Electrolyte :
Comments :
Electrode surface area : 0.000 cm²
Characteristic mass : 0.001 g
Equivalent Weight : 0.000 g/eq.
Density : 0.000 g/cm3
Volume (V) : 0.001 cm³
Cycle Definition : Charge/Discharge alternance
Ei (V)              0.000
vs.                 Eoc
dE/dt               10.000
dE/dt unit          mV/s
E1 (V)              1.000
vs.                 Ref
Step percent        50
N                   10
E range min (V)     -2.500
E range max (V)     2.500
I Range             Auto
I Range min         Unset
I Range max         Unset
I Range init        Unset
Bandwidth           5
E2 (V)              0.000
vs.                 Ref
nc cycles           2
Reverse Scan        1
Ef (V)              0.000
vs.                 Eoc

mode	ox/red	error	control changes	counter inc.	time/s	control/V	Ewe/V	<I>/mA	cycle number	(Q-Qo)/C	I Range	P/W
2	0	0	1	0	0.000000000000000E+000	-0.0167346	-0.0159557	-0.00276033	1	0.0000000E+000	13	4.40429e-08
2	0	0	1	0	4.4562	0.0278258	0.0274723	0.00175048	1	5.01605e-06	13	4.80897e-08
2	0	0	0	0	8.9572	0.0728364	0.0724765	0.00256857	1	1.38989e-05	13	1.86161e-07
2	1	0	1	0	13.4582	0.117847	0.117276	0.0035085	1	2.66319e-05	13	4.11462e-07
2	1	0	1	0	17.9594	0.162857	0.162669	0.00497993	1	4.46754e-05	13	8.10083e-07
2	1	0	0	0	22.4604	0.207868	0.206832	0.00735546	1	7.12742e-05	13	1.52135e-06
2	1	0	1	0	26.9614	0.252879	0.252744	0.0112191	1	0.00011251	13	2.83555e-06
2	1	0	1	0	31.4625	0.29789	0.297907	0.0173265	1	0.000175777	13	5.16169e-06
2	1	0	0	0	35.9636	0.3429	0.342742	0.028832	1	0.000277152	13	9.88196e-06
2	1	0	1	0	40.4646	0.38791	0.388517	0.0484496	1	0.000448614	13	1.88235e-05
2	1	0	0	0	44.9656	0.432921	0.431913	0.0745799	1	0.000723675	13	3.2212e-05
2	1	0	0	0	49.4968	0.478231	0.477899	0.104272	1	0.00112747	12	4.98317e-05
2	1	0	1	0	53.9978	0.523242	0.523107	0.138495	1	0.00167262	12	7.24479e-05
2	1	0	0	0	58.4988	0.568253	0.568832	0.179001	1	0.00238551	12	0.000101822
2	1	0	1	0	62.9999	0.613263	0.613438	0.226234	1	0.00329587	12	0.00013878
2	1	0	1	0	67.501	0.658274	0.658187	0.280826	1	0.00443367	12	0.000184836
2	1	0	0	0	72.002	0.703284	0.703464	0.350331	1	0.00584642	12	0.000246445
2	1	0	1	0	76.503	0.748295	0.748138	0.454079	1	0.00764056	12	0.000339714
2	1	0	1	0	81.0042	0.793305	0.793474	0.619079	1	0.0100271	12	0.000491223
2	1	0	0	0	85.5052	0.838316	0.838279	0.873871	1	0.0133576	12	0.000732548
2	1	0	1	0	90.0362	0.883627	0.883078	1.20515	1	0.0180446	11	0.00106424
2	1	0	1	0	94.5373	0.928636	0.928482	1.52236	1	0.0242029	11	0.00141348
2	1	0	0	0	99.0384	0.973648	0.972866	1.81483	1	0.0317137	11	0.00176558
2	1	0	1	0	103.43	0.98245	0.982591	1.69932	1	0.0399587	11	0.00166974
2	1	0	0	0	107.931	0.937439	0.937074	1.17105	1	0.0463395	11	0.00109736
2	1	0	0	0	112.432	0.892429	0.891986	0.789444	1	0.0507063	11	0.000704173
2	1	0	1	0	116.933	0.847418	0.847191	0.505324	1	0.0535857	11	0.000428106
2	1	0	0	0	121.464	0.802107	0.801961	0.298464	1	0.0553739	12	0.000239357
2	1	0	0	0	125.965	0.757097	0.756962	0.164674	1	0.0563923	12	0.000124652
2	1	0	1	0	130.466	0.712086	0.712066	0.0840348	1	0.0569338	12	5.98384e-05
2	1	0	0	0	134.967	0.667076	0.665689	0.0410419	1	0.0572031	12	2.73211e-05
2	1	0	1	0	139.468	0.622065	0.621393	0.0204638	1	0.057335	12	1.27161e-05
2	0	0	1	0	143.969	0.577055	0.576592	0.0110708	1	0.0574027	12	6.38334e-06
2	0	0	0	0	148.47	0.532044	0.531668	0.00588106	1	0.0574387	12	3.12677e-06
2	1	0	1	0	152.971	0.487033	0.486543	0.00307335	1	0.0574574	12	1.49532e-06
2	0	0	1	0	157.473	0.442023	0.440913	0.00124493	1	0.0574659	12	5.48905e-07
2	1	0	0	0	161.974	0.397012	0.396877	0.000123572	1	0.0574679	12	4.90428e-08
2	0	0	1	0	166.475	0.352002	0.351886	-0.000781937	1	0.0574654	12	-2.75152e-07
2	0	0	1	0	170.976	0.306991	0.306054	-0.00142255	1	0.0574595	12	-4.35377e-07
2	0	0	0	0	175.477	0.261981	0.261254	-0.00231256	1	0.0574503	12	-6.04168e-07
2	0	0	1	0	179.978	0.21697	0.217471	-0.00286289	1	0.0574383	12	-6.22596e-07
2	1	0	0	0	184.479	0.17196	0.172182	-0.00374898	1	0.0574233	12	-6.45505e-07
2	0	0	0	0	188.98	0.126949	0.126621	-0.00413551	1	0.0574055	12	-5.23641e-07
2	0	0	1	0	193.481	0.0819385	0.0816122	-0.00470027	1	0.057385	12	-3.83599e-07
2	1	0	0	0	197.982	0.0369279	0.0363121	-0.00519299	1	0.0573618	12	-1.88568e-07
2	1	0	0	1	202.334	0.00652081	0.00521894	-0.00494184	2	0.0573376	12	-2.57912e-08
2	0	0	1	1	206.835	0.0515311	0.0500494	-0.0030361	2	0.0573215	12	-1.51955e-07
2	1	0	1	1	211.336	0.0965419	0.0961151	-0.0016806	2	0.0573124	12	-1.61531e-07
2	1	0	0	1	215.837	0.141552	0.141177	-0.000887903	2	0.0573079	12	-1.25351e-07
2	0	0	1	1	220.338	0.186563	0.186105	-0.000166243	2	0.057307	12	-3.09388e-08
2	1	0	1	1	224.839	0.231574	0.231254	0.000444502	2	0.057309	12	1.02793e-07
2	0	0	0	1	229.34	0.276584	0.275873	0.00112399	2	0.0573138	12	3.10078e-07
2	1	0	1	1	233.841	0.321595	0.321658	0.00193873	2	0.0573213	12	6.23607e-07
2	1	0	1	1	238.342	0.366605	0.366381	0.0026319	2	0.0573322	12	9.64279e-07
2	1	0	0	1	242.843	0.411616	0.41171	0.00398318	2	0.0573474	12	1.63991e-06
2	1	0	1	1	247.344	0.456626	0.457014	0.00523299	2	0.0573686	12	2.39155e-06
2	0	0	0	1	251.845	0.501637	0.502117	0.00750615	2	0.0573982	12	3.76897e-06
2	0	0	0	1	256.346	0.546648	0.545673	0.0110114	2	0.0574404	12	6.00865e-06
2	1	0	1	1	260.847	0.591658	0.591901	0.0161235	2	0.0575017	12	9.54352e-06
2	1	0	0	1	265.348	0.636669	0.635745	0.0250648	2	0.0575937	12	1.59348e-05
2	1	0	1	1	269.849	0.681678	0.681894	0.0439282	2	0.0577442	12	2.99544e-05
2	1	0	1	1	274.351	0.72669	0.726403	0.0874953	2	0.0580282	12	6.35568e-05
2	1	0	0	1	278.852	0.7717	0.772212	0.177661	2	0.0586042	12	0.000137192
2	1	0	1	1	283.353	0.816711	0.817422	0.337447	2	0.0597356	12	0.000275837
2	1	0	1	1	287.854	0.861721	0.862198	0.579582	2	0.0617729	12	0.000499714
2	1	0	0	1	292.355	0.906732	0.906421	0.88272	2	0.0650495	12	0.000800116
2	1	0	1	1	296.886	0.952043	0.951036	1.21938	2	0.0698147	11	0.00115967
2	1	0	1	1	301.387	0.997053	0.997538	1.55058	2	0.0760663	11	0.00154677
2	1	0	0	1	305.738	0.959444	0.959515	1.13756	2	0.0819716	11	0.0010915
2	1	0	1	1	310.239	0.914434	0.913546	0.7852	2	0.0862593	11	0.000717317
2	1	0	0	1	314.74	0.869423	0.868862	0.516836	2	0.0891588	11	0.00044906
2	1	0	0	1	319.272	0.824113	0.82356	0.312994	2	0.091008	12	0.00025777
2	1	0	1	1	323.773	0.779102	0.778426	0.176646	2	0.092085	12	0.000137506
2	1	0	0	1	328.274	0.734091	0.733528	0.0917384	2	0.0926699	12	6.72927e-05
2	1	0	0	1	332.775	0.689081	0.68924	0.044517	2	0.0929642	12	3.06829e-05
2	1	0	1	1	337.276	0.64407	0.644417	0.0217993	2	0.0931064	12	1.40478e-05
2	1	0	0	1	341.777	0.59906	0.60006	0.0117087	2	0.0931779	12	7.02594e-06
[...]
2	0	0	1	1	386.787	0.148954	0.14808	-0.00197407	2	0.0932337	12	-2.92319e-07
2	1	0	0	1	391.288	0.103944	0.103525	-0.00243726	2	0.0932226	12	-2.52318e-07
2	0	0	0	1	395.79	0.0589331	0.0586567	-0.0029152	2	0.0932097	12	-1.70996e-07
2	1	0	1	1	400.291	0.0139226	0.0133905	-0.00299734	2	0.0931951	12	-4.01359e-08
2	0	0	1	0	404.642	0.0295262	0.0291779	-0.00202446	3	0.0931835	12	-5.90694e-08
2	0	0	0	0	409.143	0.0745368	0.0740781	-0.00118739	3	0.0931776	12	-8.79598e-08
2	1	0	1	0	413.644	0.119547	0.119059	-0.000605073	3	0.0931751	12	-7.20393e-08
2	1	0	1	0	418.145	0.164558	0.164428	6.25274e-06	3	0.0931751	12	1.02813e-09
2	1	0	0	0	422.646	0.209568	0.208491	0.000413078	3	0.0931775	12	8.61232e-08
2	0	0	1	0	427.147	0.254579	0.253969	0.000988895	3	0.0931819	12	2.51148e-07
2	1	0	1	0	431.649	0.29959	0.298559	0.00159485	3	0.0931885	12	4.76158e-07
2	0	0	0	0	436.15	0.3446	0.343378	0.0020405	3	0.0931977	12	7.00661e-07
2	1	0	1	0	440.651	0.389611	0.388418	0.00317823	3	0.09321	12	1.23448e-06
2	0	0	1	0	445.152	0.434621	0.433818	0.00412588	3	0.0932267	12	1.78988e-06
2	0	0	0	0	449.653	0.479632	0.478788	0.00567864	3	0.0932495	12	2.71887e-06
2	1	0	1	0	454.154	0.524642	0.52372	0.00816457	3	0.0932813	12	4.27595e-06
2	1	0	0	0	458.655	0.569653	0.568539	0.0119218	3	0.0933268	12	6.77803e-06
2	0	0	0	0	463.156	0.614663	0.614231	0.01761	3	0.0933935	12	1.08166e-05
2	1	0	1	0	467.657	0.659674	0.658908	0.0290613	3	0.0934975	12	1.91487e-05
2	1	0	0	0	472.158	0.704685	0.704287	0.0555912	3	0.0936818	12	3.91522e-05
2	1	0	1	0	476.659	0.749695	0.748944	0.113324	3	0.0940492	12	8.48733e-05
2	1	0	1	0	481.16	0.794706	0.79466	0.222901	3	0.0947849	12	0.000177131
2	1	0	0	0	485.661	0.839716	0.839056	0.403039	3	0.0961681	12	0.000338172
2	1	0	1	0	490.162	0.884727	0.88425	0.654019	3	0.0985282	12	0.000578316
2	1	0	1	0	494.663	0.929737	0.930414	0.948194	3	0.102132	12	0.000882213
2	1	0	0	0	499.194	0.975048	0.975273	1.25207	3	0.10712	11	0.00122111
2	1	0	1	0	503.546	0.98145	0.980874	1.22141	3	0.112896	11	0.00119805
2	1	0	1	0	508.047	0.93644	0.936558	0.845606	3	0.1175	11	0.000791959
2	1	0	0	0	512.548	0.891428	0.891127	0.56846	3	0.120648	11	0.00050657
2	1	0	1	0	517.079	0.846118	0.845839	0.353033	3	0.122707	12	0.000298609
2	1	0	1	0	521.58	0.801106	0.80028	0.205032	3	0.123942	12	0.000164083
2	1	0	0	0	526.081	0.756097	0.756605	0.109913	3	0.124631	12	8.31611e-05
2	1	0	1	0	530.582	0.711086	0.709766	0.0548696	3	0.124988	12	3.89446e-05
2	1	0	0	0	535.083	0.666076	0.665686	0.0263035	3	0.125162	12	1.75099e-05
2	1	0	0	0	539.584	0.621065	0.621036	0.0137099	3	0.125248	12	8.51432e-06
2	1	0	1	0	544.085	0.576054	0.575593	0.00780467	3	0.125294	12	4.49232e-06
2	0	0	0	0	548.586	0.531044	0.530924	0.00460806	3	0.12532	12	2.44653e-06
2	0	0	1	0	553.087	0.486032	0.48609	0.00281958	3	0.125336	12	1.37057e-06
2	0	0	1	0	557.589	0.441023	0.440588	0.00154938	3	0.125346	12	6.82639e-07
2	1	0	0	0	562.09	0.396012	0.396011	0.000811951	3	0.125351	12	3.21542e-07
2	1	0	1	0	566.591	0.351002	0.350707	0.000297482	3	0.125353	12	1.04329e-07
2	1	0	1	0	571.092	0.305991	0.306015	-0.000238576	3	0.125352	12	-7.30077e-08
2	1	0	0	0	575.593	0.26098	0.259846	-0.000791906	3	0.12535	12	-2.05774e-07
2	0	0	1	0	580.094	0.21597	0.215505	-0.00110726	3	0.125345	12	-2.38619e-07
2	0	0	1	0	584.595	0.170959	0.170974	-0.00137968	3	0.12534	12	-2.3589e-07
2	1	0	0	0	589.096	0.125949	0.124948	-0.00167226	3	0.125332	12	-2.08946e-07
2	0	0	1	0	593.597	0.0809383	0.0807584	-0.00189774	3	0.125324	12	-1.53259e-07
2	1	0	0	0	598.098	0.0359277	0.0356237	-0.00201618	3	0.125314	12	-7.18239e-08
2	1	0	1	1	602.45	-0.00758338	-0.00794176	-0.00223316	3	0.125303	12	1.77352e-08
2	1	0	1	1	603.383	-0.0169347	-0.0175022	-0.00712395	3	0.125301	12	1.24685e-07

File: 2022_01_27 Ni60Co30Fe10Ox 1mg ref309__03_CP_C02.mpt
EC-Lab ASCII FILE
Nb header lines : 53

Chronopotentiometry

Run on channel : 2 (SN 12477)
User :
CE vs. WE compliance from -10 V to 10 V
Electrode connection : standard
Potential control : Ewe
Ewe ctrl range : min = -2.50 V, max = 2.50 V
Safety Limits :
	Do not start on E overload
Acquisition started on : 01/27/2023 11:35:24.466
Loaded Setting File :  C:\Users\grupogalan\Documents\EC-Lab\Data\Scott\_cyclic_pause_tafel.mps
Saved on :
	File : 2022_01_27 Ni60Co30Fe10Ox 1mg ref309__03_CP_C02.mpr
	Directory : C:\Users\grupogalan\Documents\EC-Lab\Data\Scott\
	Host : 169.254.104.159
Device : VSP (SN 1176)
Address : USB
EC-Lab for windows v11.46 (software)
Internet server v11.40 (firmware)
Command interpretor v11.40 (firmware)
Electrode material :
Initial state :
Electrolyte :
Comments :
Electrode surface area : 0.000 cm²
Characteristic mass : 0.001 g
Equivalent Weight : 0.000 g/eq.
Density : 0.000 g/cm3
Volume (V) : 0.001 cm³
Cycle Definition : Charge/Discharge alternance
Ns                  0                   1                   2                   3                   4                   5                   6                   7                   8                   9                   10                  11                  12
Is                  10.000              18.000              32.000              56.000              100.000             178.000             316.000             562.000             1.000               1.778               3.162               5.623               10.000
unit Is             µA                  µA                  µA                  µA                  µA                  µA                  µA                  µA                  mA                  mA                  mA                  mA                  mA
vs.                 <None>              <None>              <None>              <None>              <None>              <None>              <None>              <None>              <None>              <None>              <None>              <None>              <None>
ts (h:m:s)          0:03:0.0000         0:03:0.0000         0:03:0.0000         0:03:0.0000         0:03:0.0000         0:03:0.0000         0:03:0.0000         0:03:0.0000         0:03:0.0000         0:03:0.0000         0:03:0.0000         0:03:0.0000         0:03:0.0000
EM (V)              pass                pass                pass                pass                pass                pass                pass                pass                pass                pass                pass                pass                pass
dQM                 500.000             900.000             1.600               2.800               5.000               8.900               15.800              28.100              50.000              88.900              158.100             281.150             500.000
unit dQM            nA.h                nA.h                µA.h                µA.h                µA.h                µA.h                µA.h                µA.h                µA.h                µA.h                µA.h                µA.h                µA.h
record              <Ewe>               <Ewe>               <Ewe>               <Ewe>               <Ewe>               <Ewe>               <Ewe>               <Ewe>               <Ewe>               <Ewe>               <Ewe>               <Ewe>               <Ewe>
dEs (mV)            0.00                0.00                0.00                0.00                0.00                0.00                0.00                0.00                0.00                0.00                0.00                0.00                0.00
dts (s)             1.0000              1.0000              1.0000              1.0000              1.0000              1.0000              1.0000              1.0000              1.0000              1.0000              1.0000              1.0000              1.0000
E range min (V)     -2.500              -2.500              -2.500              -2.500              -2.500              -2.500              -2.500              -2.500              -2.500              -2.500              -2.500              -2.500              -2.500
E range max (V)     2.500               2.500               2.500               2.500               2.500               2.500               2.500               2.500               2.500               2.500               2.500               2.500               2.500
I Range             10 mA               10 mA               10 mA               10 mA               10 mA               10 mA               10 mA               10 mA               10 mA               10 mA               10 mA               10 mA               10 mA
Bandwidth           5                   5                   5                   5                   5                   5                   5                   5                   5                   5                   5                   5                   5
goto Ns'            0                   0                   0                   0                   0                   0                   0                   0                   0                   0                   0                   0                   0
nc cycles           0                   0                   0                   0                   0                   0                   0                   0                   0                   0                   0                   0                   0

mode	ox/red	error	control changes	Ns changes	counter inc.	Ns	time/s	control/mA	<Ewe>/V	I/mA	dQ/C	(Q-Qo)/C	half cycle	Q charge/discharge/mA.h	I Range	Energy charge/W.h	Energy discharge/W.h	Capacitance charge/µF	Capacitance discharge/µF	Q discharge/mA.h	Q charge/mA.h	Capacity/mA.h	Efficiency/%	cycle number	P/W
1	1	0	0	0	0	0	628.598	0.01	0.308236	0.0122166	1.08995e-05	1.08995e-05	0	3.02763e-06	11	9.33224e-10	0.000000000000000E+000	0.000000000000000E+000	0.000000000000000E+000	0.000000000000000E+000	3.02763e-06	3.02763e-06	0.0000000E+000	0.000000000000000E+000	3.76558e-06
1	1	0	0	0	0	0	684.598	0.01	0.543827	0.0109441	0.000652968	0.000652968	0	0.00018138	11	1.01623e-07	0.000000000000000E+000	2771.62	0.000000000000000E+000	0.000000000000000E+000	0.00018138	0.00018138	0.0000000E+000	0.000000000000000E+000	5.95167e-06
1	1	0	0	0	0	0	740.598	0.01	0.478766	0.0115803	0.00129495	0.00129495	0	0.000359709	11	1.92789e-07	0.000000000000000E+000	7593.7	0.000000000000000E+000	0.000000000000000E+000	0.000359709	0.000359709	0.0000000E+000	0.000000000000000E+000	5.54426e-06
1	1	0	0	0	0	0	796.598	0.01	0.412045	0.0110713	0.00193601	0.00193601	0	0.000537781	11	2.71999e-07	0.000000000000000E+000	18649.7	0.000000000000000E+000	0.000000000000000E+000	0.000537781	0.000537781	0.0000000E+000	0.000000000000000E+000	4.56188e-06
1	1	0	1	0	0	1	851.651	0.018	0.435557	0.0193426	0.000828942	0.00289148	0	0.000803188	11	3.89189e-07	0.000000000000000E+000	22710.2	0.000000000000000E+000	0.000000000000000E+000	0.000803188	0.000803188	0.0000000E+000	0.000000000000000E+000	8.42479e-06
1	1	0	1	0	0	1	907.651	0.018	0.398605	0.0181973	0.00188385	0.00394638	0	0.00109622	11	5.11407e-07	0.000000000000000E+000	43669.5	0.000000000000000E+000	0.000000000000000E+000	0.00109622	0.00109622	0.0000000E+000	0.000000000000000E+000	7.25355e-06
[...]
1	1	0	0	0	0	8	2132.65	1	1.12429	1.00267	0.0650784	0.295796	0	0.0821656	11	7.58651e-05	0.000000000000000E+000	362471	0.000000000000000E+000	0.000000000000000E+000	0.0821656	0.0821656	0.0000000E+000	0.000000000000000E+000	0.00112729
1	1	0	0	0	0	8	2188.65	1	1.13523	1.00152	0.121145	0.351863	0	0.0977397	11	9.34589e-05	0.000000000000000E+000	425471	0.000000000000000E+000	0.000000000000000E+000	0.0977397	0.0977397	0.0000000E+000	0.000000000000000E+000	0.00113696
1	1	0	0	0	0	8	2244.65	1	1.14794	1.00165	0.177211	0.407929	0	0.113314	11	0.000111236	0.000000000000000E+000	485800	0.000000000000000E+000	0.000000000000000E+000	0.113314	0.113314	0.0000000E+000	0.000000000000000E+000	0.00114984
1	1	0	1	0	0	9	2299.65	1.778	1.28105	1.77781	0.0924929	0.503426	0	0.139841	11	0.000145045	0.000000000000000E+000	517494	0.000000000000000E+000	0.000000000000000E+000	0.139841	0.139841	0.0000000E+000	0.000000000000000E+000	0.00227747
1	1	0	1	0	0	9	2355.65	1.778	1.29009	1.77883	0.192101	0.603034	0	0.167509	11	0.0001806	0.000000000000000E+000	614181	0.000000000000000E+000	0.000000000000000E+000	0.167509	0.167509	0.0000000E+000	0.000000000000000E+000	0.00229485
1	1	0	1	0	0	9	2411.65	1.778	1.29461	1.77813	0.291708	0.70264	0	0.195178	11	0.000216414	0.000000000000000E+000	712345	0.000000000000000E+000	0.000000000000000E+000	0.195178	0.195178	0.0000000E+000	0.000000000000000E+000	0.00230199
1	1	0	0	0	0	10	2466.65	3.162	1.45594	3.16325	0.123359	0.854459	0	0.23735	11	0.000276204	0.000000000000000E+000	744496	0.000000000000000E+000	0.000000000000000E+000	0.23735	0.23735	0.0000000E+000	0.000000000000000E+000	0.0046055
1	1	0	0	0	0	10	2522.65	3.162	1.48211	3.16351	0.30049	1.03159	0	0.286553	11	0.00034839	0.000000000000000E+000	878788	0.000000000000000E+000	0.000000000000000E+000	0.286553	0.286553	0.0000000E+000	0.000000000000000E+000	0.00468868
1	1	0	0	0	0	10	2578.65	3.162	1.51439	3.16287	0.47762	1.20872	0	0.335756	11	0.000421986	0.000000000000000E+000	1.00213e+06	0.000000000000000E+000	0.000000000000000E+000	0.335756	0.335756	0.0000000E+000	0.000000000000000E+000	0.00478982
1	1	0	1	0	0	11	2633.65	5.623	1.77304	5.62402	0.146222	1.44667	0	0.401853	11	0.000531098	0.000000000000000E+000	987618	0.000000000000000E+000	0.000000000000000E+000	0.401853	0.401853	0.0000000E+000	0.000000000000000E+000	0.00997163
1	1	0	1	0	0	11	2689.65	5.623	2.03829	5.62415	0.461161	1.76161	0	0.489336	11	0.000696948	0.000000000000000E+000	1.01824e+06	0.000000000000000E+000	0.000000000000000E+000	0.489336	0.489336	0.0000000E+000	0.000000000000000E+000	0.0114636
1	1	0	1	0	0	11	2745.65	5.623	2.30255	5.62351	0.776101	2.07655	0	0.576819	11	0.000887123	0.000000000000000E+000	1.04124e+06	0.000000000000000E+000	0.000000000000000E+000	0.576819	0.576819	0.0000000E+000	0.000000000000000E+000	0.0129484
1	1	0	0	0	0	12	2800.65	10	2.87216	10.0012	0.130017	2.44277	0	0.678548	11	0.00114517	0.000000000000000E+000	952748	0.000000000000000E+000	0.000000000000000E+000	0.678548	0.678548	0.0000000E+000	0.000000000000000E+000	0.028725
1	1	0	0	0	0	12	2856.65	10	3.78196	10.0016	0.690092	3.00285	0	0.834124	11	0.00166376	0.000000000000000E+000	864445	0.000000000000000E+000	0.000000000000000E+000	0.834124	0.834124	0.0000000E+000	0.000000000000000E+000	0.0378258
1	1	0	0	0	0	12	2912.65	10	4.49722	10.0015	1.25017	3.56292	0	0.989701	11	0.0023129	0.000000000000000E+000	850545	0.000000000000000E+000	0.000000000000000E+000	0.989701	0.989701	0.0000000E+000	0.000000000000000E+000	0.0449789
1	1	0	0	0	0	12	2967.65	10	4.88002	10.0009	1.80024	4.113	0	1.1425	11	0.00303256	0.000000000000000E+000	899648	0.000000000000000E+000	0.000000000000000E+000	1.1425	1.1425	0.0000000E+000	0.000000000000000E+000	0.0488047