Folder: EC-Lab-Processing/Data

File: 2022_01_04 NiNx Ti electrode1 CV post tafel, bulk_03_CP_C05.mpt
EC-Lab ASCII FILE
Nb header lines : 53

Chronopotentiometry

Run on channel : 5 (SN 30436)
User :
CE vs. WE compliance from -10 V to 10 V
Electrode connection : standard
Potential control : Ewe
Ewe ctrl range : min = -2.50 V, max = 2.50 V
Safety Limits :
	Do not start on E overload
Acquisition started on : 01/04/2023 13:13:31.069
Technique started on : 01/04/2023 13:23:31.181
Loaded Setting File :  C:\Users\grupogalan\Documents\EC-Lab\Data\Scott\2022_01_04 NiNx Ti electrode1.mps
Saved on :
	File : 2022_01_04 NiNx Ti electrode1 CV post tafel, bulk_03_CP_C05.mpr
	Directory : C:\Users\grupogalan\Documents\EC-Lab\Data\Scott\
	Host : 169.254.104.159
Device : VSP (SN 1176)
Address : USB
EC-Lab for windows v11.46 (software)
Internet server v11.40 (firmware)
Command interpretor v11.40 (firmware)
Electrode material :
Initial state :
Electrolyte :
Comments :
Electrode surface area : 0.000 cm²
Characteristic mass : 0.001 g
Equivalent Weight : 0.000 g/eq.
Density : 0.000 g/cm3
Volume (V) : 0.001 cm³
Cycle Definition : Charge/Discharge alternance
Is                  10.000
unit Is             mA
vs.                 <None>
ts (h:m:s)          2:00:0.0000
EM (V)              pass
dQM                 20.000
unit dQM            mA.h
record              <Ewe>
dEs (mV)            0.00
dts (s)             1.0000
E range min (V)     -2.500
E range max (V)     2.500
I Range             10 mA
Bandwidth           5
goto Ns'            0
nc cycles           0

mode	ox/red	error	control changes	Ns changes	counter inc.	Ns	time/s	control/mA	<Ewe>/V	I/mA	dQ/C	(Q-Qo)/C	half cycle	Q charge/discharge/mA.h	I Range	Energy charge/W.h	Energy discharge/W.h	Capacitance charge/µF	Capacitance discharge/µF	Q discharge/mA.h	Q charge/mA.h	Capacity/mA.h	Efficiency/%	cycle number	P/W
1	1	0	1	0	0	0	600.112	10	1.13333	9.99881	0.00947512	0.00947512	0	0.00263198	11	2.98289e-06	0.000000000000000E+000	0.000000000000000E+000	0.000000000000000E+000	0.000000000000000E+000	0.00263198	0.00263198	0.0000000E+000	0.000000000000000E+000	0.0113319
1	1	0	1	0	0	0	762.112	10	1.25952	9.99951	1.62933	1.62933	0	0.452593	11	0.000565636	0.000000000000000E+000	1.29111e+07	0.000000000000000E+000	0.000000000000000E+000	0.452593	0.452593	0.0000000E+000	0.000000000000000E+000	0.0125946
1	1	0	1	0	0	0	924.112	10	1.26389	9.99868	3.24919	3.24919	0	0.902554	11	0.00113393	0.000000000000000E+000	2.48866e+07	0.000000000000000E+000	0.000000000000000E+000	0.902554	0.902554	0.0000000E+000	0.000000000000000E+000	0.0126372
1	1	0	1	0	0	0	1086.11	10	1.26321	9.99945	4.86906	4.86906	0	1.35252	11	0.00170251	0.000000000000000E+000	3.74871e+07	0.000000000000000E+000	0.000000000000000E+000	1.35252	1.35252	0.0000000E+000	0.000000000000000E+000	0.0126314
1	1	0	1	0	0	0	1248.11	10	1.26165	9.99862	6.48892	6.48892	0	1.80248	11	0.00227064	0.000000000000000E+000	5.05677e+07	0.000000000000000E+000	0.000000000000000E+000	1.80248	1.80248	0.0000000E+000	0.000000000000000E+000	0.0126147
1	1	0	1	0	0	0	1410.11	10	1.2613	9.99945	8.10878	8.10878	0	2.25244	11	0.00283811	0.000000000000000E+000	6.33627e+07	0.000000000000000E+000	0.000000000000000E+000	2.25244	2.25244	0.0000000E+000	0.000000000000000E+000	0.0126123
1	1	0	1	0	0	0	1572.11	10	1.25919	9.99836	9.72865	9.72865	0	2.7024	11	0.0034051	0.000000000000000E+000	7.72954e+07	0.000000000000000E+000	0.000000000000000E+000	2.7024	2.7024	0.0000000E+000	0.000000000000000E+000	0.0125898
1	1	0	1	0	0	0	1734.11	10	1.25723	9.99906	11.3485	11.3485	0	3.15237	11	0.00397142	0.000000000000000E+000	9.15902e+07	0.000000000000000E+000	0.000000000000000E+000	3.15237	3.15237	0.0000000E+000	0.000000000000000E+000	0.0125711
1	1	0	1	0	0	0	1896.11	10	1.2567	9.99894	12.9684	12.9684	0	3.60234	11	0.00453712	0.000000000000000E+000	1.05119e+08	0.000000000000000E+000	0.000000000000000E+000	3.60234	3.60234	0.0000000E+000	0.000000000000000E+000	0.0125656
1	1	0	1	0	0	0	2058.11	10	1.25695	9.99868	14.5883	14.5883	0	4.05231	11	0.00510245	0.000000000000000E+000	1.18009e+08	0.000000000000000E+000	0.000000000000000E+000	4.05231	4.05231	0.0000000E+000	0.000000000000000E+000	0.0125678
1	1	0	1	0	0	0	2220.11	10	1.25551	9.99919	16.2082	16.2082	0	4.50227	11	0.00566734	0.000000000000000E+000	1.32656e+08	0.000000000000000E+000	0.000000000000000E+000	4.50227	4.50227	0.0000000E+000	0.000000000000000E+000	0.0125541
1	1	0	1	0	0	0	2382.11	10	1.25456	9.999	17.828	17.828	0	4.95223	11	0.00623199	0.000000000000000E+000	1.47051e+08	0.000000000000000E+000	0.000000000000000E+000	4.95223	4.95223	0.0000000E+000	0.000000000000000E+000	0.0125444
1	1	0	1	0	0	0	2544.11	10	1.25368	9.99875	19.4479	19.4479	0	5.40219	11	0.0067964	0.000000000000000E+000	1.61592e+08	0.000000000000000E+000	0.000000000000000E+000	5.40219	5.40219	0.0000000E+000	0.000000000000000E+000	0.0125352
1	1	0	1	0	0	0	2706.11	10	1.25488	9.99875	21.0677	21.0677	0	5.85215	11	0.00736088	0.000000000000000E+000	1.73325e+08	0.000000000000000E+000	0.000000000000000E+000	5.85215	5.85215	0.0000000E+000	0.000000000000000E+000	0.0125472
1	1	0	1	0	0	0	2868.11	10	1.25308	10	22.6876	22.6876	0	6.3021	11	0.00792504	0.000000000000000E+000	1.89457e+08	0.000000000000000E+000	0.000000000000000E+000	6.3021	6.3021	0.0000000E+000	0.000000000000000E+000	0.0125308
1	1	0	1	0	0	0	3030.11	10	1.25303	9.99919	24.3074	24.3074	0	6.75206	11	0.0084889	0.000000000000000E+000	2.03062e+08	0.000000000000000E+000	0.000000000000000E+000	6.75206	6.75206	0.0000000E+000	0.000000000000000E+000	0.0125293
1	1	0	1	0	0	0	3192.11	10	1.25299	9.99919	25.9273	25.9273	0	7.20202	11	0.0090527	0.000000000000000E+000	2.1667e+08	0.000000000000000E+000	0.000000000000000E+000	7.20202	7.20202	0.0000000E+000	0.000000000000000E+000	0.0125289
1	1	0	1	0	0	0	3354.11	10	1.25307	9.99849	27.5471	27.5471	0	7.65198	11	0.0096164	0.000000000000000E+000	2.30045e+08	0.000000000000000E+000	0.000000000000000E+000	7.65198	7.65198	0.0000000E+000	0.000000000000000E+000	0.0125288
1	1	0	1	0	0	0	3516.11	10	1.2523	9.99919	29.167	29.167	0	8.10194	11	0.01018	0.000000000000000E+000	2.45164e+08	0.000000000000000E+000	0.000000000000000E+000	8.10194	8.10194	0.0000000E+000	0.000000000000000E+000	0.0125219
1	1	0	1	0	0	0	3678.11	10	1.25225	9.99887	30.7869	30.7869	0	8.55191	11	0.0107436	0.000000000000000E+000	2.58869e+08	0.000000000000000E+000	0.000000000000000E+000	8.55191	8.55191	0.0000000E+000	0.000000000000000E+000	0.0125211
1	1	0	1	0	0	0	3840.11	10	1.25325	9.99932	32.4067	32.4067	0	9.00187	11	0.0113073	0.000000000000000E+000	2.70232e+08	0.000000000000000E+000	0.000000000000000E+000	9.00187	9.00187	0.0000000E+000	0.000000000000000E+000	0.0125316
1	1	0	1	0	0	0	4002.11	10	1.2526	9.999	34.0266	34.0266	0	9.45183	11	0.0118711	0.000000000000000E+000	2.85286e+08	0.000000000000000E+000	0.000000000000000E+000	9.45183	9.45183	0.0000000E+000	0.000000000000000E+000	0.0125247
1	1	0	1	0	0	0	4164.11	10	1.25353	9.99913	35.6464	35.6464	0	9.90179	11	0.0124349	0.000000000000000E+000	2.96549e+08	0.000000000000000E+000	0.000000000000000E+000	9.90179	9.90179	0.0000000E+000	0.000000000000000E+000	0.0125342
1	1	0	1	0	0	0	4326.11	10	1.25423	9.99862	37.2663	37.2663	0	10.3517	11	0.0129991	0.000000000000000E+000	3.0822e+08	0.000000000000000E+000	0.000000000000000E+000	10.3517	10.3517	0.0000000E+000	0.000000000000000E+000	0.0125406
[...]
1	1	0	1	0	0	0	5460.11	10	1.25535	9.99894	48.6053	48.6053	0	13.5015	11	0.016949	0.000000000000000E+000	3.98328e+08	0.000000000000000E+000	0.000000000000000E+000	13.5015	13.5015	0.0000000E+000	0.000000000000000E+000	0.0125522
1	1	0	1	0	0	0	5622.11	10	1.25455	9.99919	50.2251	50.2251	0	13.9514	11	0.0175135	0.000000000000000E+000	4.14317e+08	0.000000000000000E+000	0.000000000000000E+000	13.9514	13.9514	0.0000000E+000	0.000000000000000E+000	0.0125445
1	1	0	1	0	0	0	5784.11	10	1.25493	9.99919	51.845	51.845	0	14.4014	11	0.0180782	0.000000000000000E+000	4.26357e+08	0.000000000000000E+000	0.000000000000000E+000	14.4014	14.4014	0.0000000E+000	0.000000000000000E+000	0.0125482
1	1	0	1	0	0	0	5946.11	10	1.25594	9.99996	53.4649	53.4649	0	14.8514	11	0.0186431	0.000000000000000E+000	4.36053e+08	0.000000000000000E+000	0.000000000000000E+000	14.8514	14.8514	0.0000000E+000	0.000000000000000E+000	0.0125593
1	1	0	1	0	0	0	6108.11	10	1.25523	9.9997	55.0847	55.0847	0	15.3013	11	0.0192079	0.000000000000000E+000	4.51867e+08	0.000000000000000E+000	0.000000000000000E+000	15.3013	15.3013	0.0000000E+000	0.000000000000000E+000	0.0125519
1	1	0	1	0	0	0	6270.11	10	1.25549	9.99913	56.7046	56.7046	0	15.7513	11	0.0197727	0.000000000000000E+000	4.64162e+08	0.000000000000000E+000	0.000000000000000E+000	15.7513	15.7513	0.0000000E+000	0.000000000000000E+000	0.0125538
1	1	0	1	0	0	0	6432.11	10	1.2554	9.99919	58.3245	58.3245	0	16.2012	11	0.0203377	0.000000000000000E+000	4.77764e+08	0.000000000000000E+000	0.000000000000000E+000	16.2012	16.2012	0.0000000E+000	0.000000000000000E+000	0.012553
1	1	0	1	0	0	0	6594.11	10	1.25487	9.99887	59.9443	59.9443	0	16.6512	11	0.0209025	0.000000000000000E+000	4.9319e+08	0.000000000000000E+000	0.000000000000000E+000	16.6512	16.6512	0.0000000E+000	0.000000000000000E+000	0.0125473
1	1	0	1	0	0	0	6756.11	10	1.25531	9.99906	61.5642	61.5642	0	17.1012	11	0.0214675	0.000000000000000E+000	5.04677e+08	0.000000000000000E+000	0.000000000000000E+000	17.1012	17.1012	0.0000000E+000	0.000000000000000E+000	0.012552
1	1	0	1	0	0	0	6918.11	10	1.25538	9.99906	63.184	63.184	0	17.5511	11	0.0220325	0.000000000000000E+000	5.17674e+08	0.000000000000000E+000	0.000000000000000E+000	17.5511	17.5511	0.0000000E+000	0.000000000000000E+000	0.0125526
1	1	0	1	0	0	0	7080.11	10	1.25655	9.99881	64.8039	64.8039	0	18.0011	11	0.0225978	0.000000000000000E+000	5.25895e+08	0.000000000000000E+000	0.000000000000000E+000	18.0011	18.0011	0.0000000E+000	0.000000000000000E+000	0.012564
1	1	0	1	0	0	0	7242.11	10	1.25667	9.9997	66.4237	66.4237	0	18.451	11	0.0231632	0.000000000000000E+000	5.38516e+08	0.000000000000000E+000	0.000000000000000E+000	18.451	18.451	0.0000000E+000	0.000000000000000E+000	0.0125663
1	1	0	1	0	0	0	7404.11	10	1.25849	9.99836	68.0436	68.0436	0	18.901	11	0.0237288	0.000000000000000E+000	5.43647e+08	0.000000000000000E+000	0.000000000000000E+000	18.901	18.901	0.0000000E+000	0.000000000000000E+000	0.0125828
1	1	0	1	0	0	0	7566.11	10	1.25769	9.99906	69.6635	69.6635	0	19.351	11	0.0242946	0.000000000000000E+000	5.60146e+08	0.000000000000000E+000	0.000000000000000E+000	19.351	19.351	0.0000000E+000	0.000000000000000E+000	0.0125758
1	1	0	1	0	0	0	7728.11	10	1.25663	9.99906	71.2833	71.2833	0	19.8009	11	0.0248604	0.000000000000000E+000	5.78105e+08	0.000000000000000E+000	0.000000000000000E+000	19.8009	19.8009	0.0000000E+000	0.000000000000000E+000	0.0125651
1	1	0	1	0	0	0	7799.16	10	1.25679	9.9997	71.9938	71.9938	0	19.9983	11	0.0251085	0.000000000000000E+000	5.83107e+08	0.000000000000000E+000	0.000000000000000E+000	19.9983	19.9983	0.0000000E+000	0.000000000000000E+000	0.0125675

File: 2022_01_04 NiNx Ti electrode1_02_CV_C05.mpt
EC-Lab ASCII FILE
Nb header lines : 61

Cyclic Voltammetry

Run on channel : 5 (SN 30436)
User :
CE vs. WE compliance from -10 V to 10 V
Electrode connection : standard
Potential control : Ewe
Ewe ctrl range : min = -2.50 V, max = 2.50 V
Safety Limits :
	Do not start on E overload
Acquisition started on : 01/04/2023 12:17:22.870
Technique started on : 01/04/2023 12:18:44.191
Loaded Setting File :  NONE
Saved on :
	File : 2022_01_04 NiNx Ti electrode1_02_CV_C05.mpr
	Directory : C:\Users\grupogalan\Documents\EC-Lab\Data\Scott\
	Host : 169.254.104.159
Device : VSP (SN 1176)
Address : USB
EC-Lab for windows v11.46 (software)
Internet server v11.40 (firmware)
Command interpretor v11.40 (firmware)
Electrode material :
Initial state :
Electrolyte :
Comments :
Electrode surface area : 0.000 cm²
Characteristic mass : 0.001 g
Equivalent Weight : 0.000 g/eq.
Density : 0.000 g/cm3
Volume (V) : 0.001 cm³
Cycle Definition : Charge/Discharge alternance
Ei (V)              0.000
vs.                 Eoc
dE/dt               10.000
dE/dt unit          mV/s
E1 (V)              1.000
vs.                 Ref
Step percent        50
N                   10
E range min (V)     -2.500
E range max (V)     2.500
I Range             Auto
I Range min         Unset
I Range max         Unset
I Range init        Unset
Bandwidth           5
E2 (V)              0.000
vs.                 Ref
nc cycles           2
Reverse Scan        1
Ef (V)              0.000
vs.                 Eoc

Modify on : 01/04/2023 12:19
vs.                 Ref

mode	ox/red	error	control changes	counter inc.	time/s	control/V	Ewe/V	<I>/mA	cycle number	(Q-Qo)/C	I Range	P/W
2	0	0	1	0	81.3206	-0.188491	-0.189048	-0.0400743	1	0.0000000E+000	13	7.57595e-06
2	1	0	1	0	85.8364	-0.143335	-0.143373	0.000725416	1	3.82718e-06	13	-1.04005e-07
2	1	0	0	0	90.337	-0.0983288	-0.098443	0.00112889	1	8.88089e-06	13	-1.11131e-07
2	1	0	1	0	94.8376	-0.0533225	-0.0535682	0.00150258	1	1.59442e-05	13	-8.04905e-08
2	1	0	0	0	99.3382	-0.00831619	-0.0084526	0.00172779	1	2.42379e-05	13	-1.46043e-08
2	1	0	1	0	103.839	0.0366901	0.036594	0.00209846	1	3.3928e-05	13	7.67912e-08
2	1	0	0	0	108.339	0.0816964	0.081699	0.00250202	1	4.53908e-05	13	2.04412e-07
2	1	0	0	0	112.84	0.126703	0.126616	0.00301303	1	5.9003e-05	13	3.81498e-07
2	1	0	1	0	117.341	0.171709	0.171595	0.0035852	1	7.52481e-05	13	6.15203e-07
2	1	0	0	0	121.841	0.216715	0.216636	0.00446829	1	9.49515e-05	13	9.67993e-07
2	1	0	1	0	126.342	0.261722	0.261563	0.00564024	1	0.000119433	13	1.47528e-06
2	1	0	0	0	130.843	0.306728	0.306527	0.00720879	1	0.000150388	13	2.20969e-06
2	1	0	1	0	135.343	0.351734	0.351536	0.00913785	1	0.000189478	13	3.21228e-06
2	1	0	1	0	139.844	0.39674	0.396592	0.011773	1	0.000238984	13	4.66906e-06
2	1	0	0	0	144.345	0.441747	0.4417	0.0326065	1	0.000314846	13	1.44023e-05
2	1	0	1	0	148.845	0.486753	0.486761	0.0805555	1	0.000601694	13	3.92113e-05
2	1	0	0	0	153.376	0.532059	0.531999	0.114309	1	0.00104424	12	6.08125e-05
2	1	0	1	0	157.876	0.577066	0.576905	0.128695	1	0.00160574	12	7.42447e-05
2	1	0	0	0	162.377	0.622072	0.622006	0.147912	1	0.0022235	12	9.2002e-05
2	1	0	1	0	166.878	0.667078	0.666984	0.219938	1	0.00302589	12	0.000146695
2	1	0	1	0	171.378	0.712085	0.712017	0.378709	1	0.00433746	12	0.000269647
2	1	0	0	0	175.879	0.757091	0.757008	0.696629	1	0.00670176	12	0.000527354
2	1	0	1	0	180.41	0.802397	0.802371	1.15581	1	0.0108551	11	0.000927392
2	1	0	0	0	184.91	0.847403	0.847442	1.75415	1	0.0173666	11	0.00148654
2	1	0	1	0	189.411	0.89241	0.892482	2.47613	1	0.0268541	11	0.00220991
2	1	0	0	0	193.911	0.937416	0.937431	3.28002	1	0.0398001	11	0.00307479
2	1	0	0	0	198.412	0.982422	0.982557	4.11661	1	0.0564205	11	0.0040448
2	1	0	1	0	202.823	0.973421	0.973465	3.53642	1	0.0743831	11	0.00344258
2	1	0	0	0	207.324	0.928415	0.928504	2.53819	1	0.0879116	11	0.00235672
2	1	0	1	0	211.824	0.883409	0.883424	1.80182	1	0.0976049	11	0.00159177
2	1	0	1	0	216.325	0.838403	0.838342	1.22967	1	0.104367	11	0.00103088
2	1	0	0	0	220.826	0.793396	0.793333	0.791609	1	0.10886	11	0.00062801
2	1	0	1	0	225.326	0.74839	0.748272	0.468357	1	0.111652	11	0.000350459
2	1	0	0	0	229.857	0.703083	0.702953	0.233349	1	0.113205	12	0.000164033
2	1	0	1	0	234.358	0.658077	0.657931	0.0854754	1	0.113883	12	5.62369e-05
2	1	0	0	0	238.888	0.612771	0.61265	0.0198962	1	0.11409	13	1.21894e-05
2	0	0	1	0	243.389	0.567765	0.567625	-0.00073274	1	0.114119	13	-4.15922e-07
2	0	0	1	0	247.89	0.522758	0.522582	-0.0104977	1	0.114086	13	-5.48592e-06
2	0	0	0	0	252.39	0.477752	0.477612	-0.0175908	1	0.114017	13	-8.40159e-06
2	0	0	1	0	256.891	0.432745	0.4327	-0.0256932	1	0.113915	13	-1.11174e-05
2	0	0	0	0	261.391	0.387739	0.387638	-0.0519295	1	0.113751	13	-2.01299e-05
2	0	0	1	0	265.922	0.342433	0.342455	-0.262827	1	0.113142	12	-9.00065e-05
2	0	0	0	0	270.423	0.297427	0.29734	-0.0840306	1	0.112327	12	-2.49857e-05
2	0	0	0	0	274.953	0.25212	0.252017	-0.0200613	1	0.112152	13	-5.05578e-06
2	0	0	1	0	279.454	0.207114	0.207082	-0.0115512	1	0.112084	13	-2.39206e-06
2	0	0	0	0	283.955	0.162108	0.162024	-0.00843369	1	0.112038	13	-1.36646e-06
2	0	0	1	0	288.455	0.117101	0.117059	-0.00678568	1	0.112003	13	-7.94326e-07
2	0	0	0	0	292.956	0.0720951	0.0720402	-0.00573322	1	0.111973	13	-4.13022e-07
2	0	0	1	0	297.456	0.0270888	0.0271124	-0.00490638	1	0.111949	13	-1.33024e-07
2	0	0	1	1	301.818	0.0165873	0.0164401	-0.00215538	2	0.111931	13	-3.54346e-08
2	0	0	0	1	306.318	0.0615936	0.0614846	-0.000728807	2	0.111926	13	-4.48104e-08
2	0	0	1	1	310.819	0.1066	0.106456	3.54862e-05	2	0.111925	13	3.77772e-09
2	0	0	0	1	315.319	0.151606	0.151546	0.000642311	2	0.111928	13	9.73397e-08
2	0	0	1	1	319.82	0.196613	0.19644	0.00134992	2	0.111933	13	2.6518e-07
2	0	0	1	1	324.321	0.241619	0.241562	0.00229088	2	0.111942	13	5.53389e-07
2	0	0	0	1	328.821	0.286625	0.286539	0.00329785	2	0.111957	13	9.44964e-07
2	0	0	1	1	333.322	0.331631	0.331617	0.00432444	2	0.111976	13	1.43406e-06
2	1	0	0	1	337.823	0.376638	0.376683	0.0057686	2	0.112001	13	2.17293e-06
2	1	0	1	1	342.323	0.421644	0.421586	0.0763961	2	0.112089	13	3.22075e-05
2	1	0	0	1	346.854	0.46695	0.466933	0.166433	2	0.112659	12	7.77131e-05
2	1	0	0	1	351.355	0.511957	0.511913	0.118302	2	0.113391	12	6.05605e-05
2	1	0	1	1	355.855	0.556963	0.556925	0.0681493	2	0.113795	12	3.79541e-05
2	1	0	0	1	360.356	0.601969	0.601977	0.0821654	2	0.114103	12	4.94617e-05
2	1	0	1	1	364.856	0.646975	0.647013	0.102371	2	0.114515	12	6.62353e-05
2	1	0	0	1	369.357	0.691982	0.69196	0.246624	2	0.115252	12	0.000170654
2	1	0	1	1	373.858	0.736988	0.736909	0.527351	2	0.116947	12	0.000388609
2	1	0	1	1	378.358	0.781994	0.782033	0.932239	2	0.120188	12	0.000729042
2	1	0	0	1	382.889	0.827301	0.82732	1.47543	2	0.125593	11	0.00122065
2	1	0	1	1	387.39	0.872307	0.872454	2.16098	2	0.133732	11	0.00188536
2	1	0	0	1	391.89	0.917313	0.917337	2.96217	2	0.145236	11	0.00271731
2	1	0	1	1	396.391	0.962319	0.962441	3.84399	2	0.160547	11	0.00369961
2	1	0	1	1	400.712	0.994424	0.994375	4.34409	2	0.178867	11	0.00431966
2	1	0	0	1	405.213	0.949418	0.949359	3.09484	2	0.195359	11	0.00293812
2	1	0	1	1	409.713	0.904411	0.904445	2.21361	2	0.207217	11	0.00200209
2	1	0	0	1	414.214	0.859405	0.859464	1.52258	2	0.21555	11	0.00130861
2	1	0	1	1	418.714	0.814399	0.814327	0.998206	2	0.221158	11	0.000812867
2	1	0	0	1	423.215	0.769393	0.769379	0.617638	2	0.224744	11	0.000475198
2	1	0	0	1	427.746	0.724086	0.724137	0.336763	2	0.226866	12	0.000243862
[...]
2	0	0	1	1	481.843	0.18311	0.183098	-0.0134847	2	0.226201	13	-2.46901e-06
2	0	0	1	1	486.344	0.138104	0.138001	-0.0100663	2	0.226148	13	-1.38915e-06
2	0	0	0	1	490.845	0.093098	0.0930124	-0.00817345	2	0.226106	13	-7.60232e-07
2	0	0	1	1	495.345	0.0480917	0.047969	-0.00660937	2	0.226072	13	-3.17045e-07
2	0	0	0	1	499.846	0.00308541	0.00298073	-0.00577802	2	0.226044	13	-1.72227e-08
2	0	0	0	0	504.207	0.0405906	0.0404943	-0.00169895	3	0.226031	13	-6.87978e-08
2	1	0	1	0	508.708	0.0855969	0.0856683	-0.000460311	3	0.226027	13	-3.94341e-08
2	1	0	0	0	513.208	0.130603	0.13029	0.000332937	3	0.226028	13	4.33785e-08
2	1	0	1	0	517.709	0.17561	0.175479	0.00108077	3	0.226032	13	1.89653e-07
2	1	0	0	0	522.209	0.220616	0.220435	0.0019564	3	0.226039	13	4.31258e-07
2	1	0	1	0	526.71	0.265622	0.265387	0.00300272	3	0.226051	13	7.96882e-07
2	1	0	1	0	531.211	0.310629	0.310584	0.00413785	3	0.226069	13	1.28515e-06
2	1	0	0	0	535.711	0.355635	0.355554	0.00546464	3	0.226092	13	1.94298e-06
2	1	0	1	0	540.212	0.400641	0.400684	0.00884752	3	0.226124	13	3.54506e-06
2	1	0	0	0	544.743	0.445947	0.445967	0.114757	3	0.226406	12	5.11779e-05
2	1	0	1	0	549.243	0.490954	0.490868	0.180304	3	0.227141	12	8.85056e-05
2	1	0	0	0	553.744	0.53596	0.535919	0.0946266	3	0.227754	12	5.07122e-05
2	1	0	1	0	558.244	0.580966	0.580931	0.0684384	3	0.228103	12	3.97579e-05
2	1	0	1	0	562.745	0.625972	0.625922	0.0910858	3	0.228493	12	5.70126e-05
2	1	0	0	0	567.246	0.670979	0.671056	0.167149	3	0.229023	12	0.000112166
2	1	0	1	0	571.746	0.715985	0.715933	0.376703	3	0.230205	12	0.000269694
2	1	0	0	0	576.247	0.760991	0.761011	0.718053	3	0.23263	12	0.000546446
2	1	0	1	0	580.778	0.806298	0.80635	1.17836	3	0.23689	11	0.000950171
2	1	0	0	0	585.278	0.851304	0.851396	1.77215	3	0.243485	11	0.0015088
2	1	0	0	0	589.779	0.89631	0.896405	2.49087	3	0.253041	11	0.00223282
2	1	0	1	0	594.28	0.941317	0.941437	3.31132	3	0.266092	11	0.0031174
2	1	0	0	0	598.78	0.986323	0.986454	4.20045	3	0.283016	11	0.00414355
2	1	0	1	0	603.101	0.970421	0.970359	3.5378	3	0.300643	11	0.00343294
2	1	0	0	0	607.602	0.925414	0.925496	2.54779	3	0.314226	11	0.00235797
2	1	0	0	0	612.103	0.880408	0.880522	1.78601	3	0.323899	11	0.00157262
2	1	0	1	0	616.603	0.835402	0.835479	1.20335	3	0.330551	11	0.00100537
2	1	0	0	0	621.104	0.790396	0.790319	0.76879	3	0.334932	11	0.000607589
2	1	0	1	0	625.619	0.745239	0.745182	0.450675	3	0.337646	11	0.000335835
2	1	0	0	0	630.135	0.700083	0.700022	0.22238	3	0.339134	12	0.000155671
2	1	0	1	0	634.636	0.655077	0.655048	0.0784641	3	0.339771	12	5.13978e-05
2	1	0	1	0	639.166	0.60977	0.609727	0.0158445	3	0.339955	13	9.6608e-06
2	1	0	0	0	643.667	0.564764	0.564684	-0.00430309	3	0.339967	13	-2.42989e-06
2	0	0	1	0	648.168	0.519758	0.519679	-0.0142434	3	0.339919	13	-7.402e-06
2	0	0	0	0	652.668	0.474751	0.474647	-0.0213652	3	0.339833	13	-1.01409e-05
2	0	0	1	0	657.169	0.429745	0.42958	-0.029987	3	0.339714	13	-1.28818e-05
2	0	0	0	0	661.669	0.384739	0.384564	-0.0591068	3	0.339528	13	-2.27303e-05
2	0	0	1	0	666.2	0.339433	0.339302	-0.225303	3	0.338889	12	-7.64459e-05
2	0	0	1	0	670.701	0.294426	0.294323	-0.0837152	3	0.33818	12	-2.46393e-05
2	0	0	0	0	675.231	0.24912	0.248946	-0.0306226	3	0.337949	13	-7.62339e-06
2	0	0	1	0	679.732	0.204114	0.203946	-0.017882	3	0.337844	13	-3.64697e-06
2	0	0	0	0	684.233	0.159107	0.158933	-0.0126823	3	0.337775	13	-2.01564e-06
2	0	0	1	0	688.733	0.114101	0.113904	-0.010288	3	0.337723	13	-1.17185e-06
2	0	0	0	0	693.234	0.0690946	0.0689529	-0.0084202	3	0.337681	13	-5.80598e-07
2	0	0	0	0	697.735	0.0240883	0.0239254	-0.00746685	3	0.337645	13	-1.78647e-07
2	0	0	0	1	700.139	3.49817e-05	-0.000383576	-0.00650412	3	0.337627	13	2.49482e-09