Folder: EC-Lab-Processing/Data_1mg (part 7)

File: 2022_01_27 Ni60Co30Fe10Ox 1mg ref309_bulk_C02.mpt
EC-Lab ASCII FILE
Nb header lines : 52

Chronopotentiometry

Run on channel : 2 (SN 12477)
User :
CE vs. WE compliance from -10 V to 10 V
Electrode connection : standard
Potential control : Ewe
Ewe ctrl range : min = -2.50 V, max = 2.50 V
Safety Limits :
	Do not start on E overload
Acquisition started on : 01/27/2023 12:25:52.494
Loaded Setting File :  C:\Users\grupogalan\Documents\EC-Lab\Data\Scott\_cyclic_pause_cp2hr.mps
Saved on :
	File : 2022_01_27 Ni60Co30Fe10Ox 1mg ref309_bulk_C02.mpr
	Directory : C:\Users\grupogalan\Documents\EC-Lab\Data\Scott\
	Host : 169.254.104.159
Device : VSP (SN 1176)
Address : USB
EC-Lab for windows v11.46 (software)
Internet server v11.40 (firmware)
Command interpretor v11.40 (firmware)
Electrode material :
Initial state :
Electrolyte :
Comments :
Electrode surface area : 0.000 cm²
Characteristic mass : 0.001 g
Equivalent Weight : 0.000 g/eq.
Density : 0.000 g/cm3
Volume (V) : 0.001 cm³
Cycle Definition : Charge/Discharge alternance
Is                  10.000
unit Is             mA
vs.                 <None>
ts (h:m:s)          2:00:0.0000
EM (V)              pass
dQM                 20.000
unit dQM            mA.h
record              <Ewe>
dEs (mV)            0.00
dts (s)             1.0000
E range min (V)     -2.500
E range max (V)     2.500
I Range             10 mA
Bandwidth           5
goto Ns'            0
nc cycles           0

mode	ox/red	error	control changes	Ns changes	counter inc.	Ns	time/s	control/mA	<Ewe>/V	I/mA	dQ/C	(Q-Qo)/C	half cycle	Q charge/discharge/mA.h	I Range	Energy charge/W.h	Energy discharge/W.h	Capacitance charge/µF	Capacitance discharge/µF	Q discharge/mA.h	Q charge/mA.h	Capacity/mA.h	Efficiency/%	cycle number	P/W
1	1	0	1	0	0	0	1	10	4.83599	10.0012	0.00949916	0.00949916	0	0.00263866	11	1.27605e-05	0.000000000000000E+000	0.000000000000000E+000	0.000000000000000E+000	0.000000000000000E+000	0.00263866	0.00263866	0.0000000E+000	0.000000000000000E+000	0.0483656
1	1	0	1	0	0	0	2	10	4.89793	10.0009	0.0195005	0.0195005	0	0.00541681	11	2.63677e-05	0.000000000000000E+000	314847	0.000000000000000E+000	0.000000000000000E+000	0.00541681	0.00541681	0.0000000E+000	0.000000000000000E+000	0.0489835
1	1	0	1	0	0	0	3	10	4.90105	10.0017	0.0295019	0.0295019	0	0.00819497	11	3.99837e-05	0.000000000000000E+000	453469	0.000000000000000E+000	0.000000000000000E+000	0.00819497	0.00819497	0.0000000E+000	0.000000000000000E+000	0.0490188
1	1	0	1	0	0	0	4	10	4.90264	10.0011	0.0395033	0.0395033	0	0.0109731	11	5.3604e-05	0.000000000000000E+000	592712	0.000000000000000E+000	0.000000000000000E+000	0.0109731	0.0109731	0.0000000E+000	0.000000000000000E+000	0.0490319
1	1	0	1	0	0	0	5	10	4.90478	10.0018	0.0495047	0.0495047	0	0.0137513	11	6.72304e-05	0.000000000000000E+000	719656	0.000000000000000E+000	0.000000000000000E+000	0.0137513	0.0137513	0.0000000E+000	0.000000000000000E+000	0.0490567
1	1	0	1	0	0	0	6	10	4.90703	10.0012	0.0595062	0.0595062	0	0.0165295	11	8.08629e-05	0.000000000000000E+000	837703	0.000000000000000E+000	0.000000000000000E+000	0.0165295	0.0165295	0.0000000E+000	0.000000000000000E+000	0.0490764
1	1	0	1	0	0	0	7	10	4.9104	10.0014	0.0695076	0.0695076	0	0.0193077	11	9.45049e-05	0.000000000000000E+000	934135	0.000000000000000E+000	0.000000000000000E+000	0.0193077	0.0193077	0.0000000E+000	0.000000000000000E+000	0.0491107
1	1	0	1	0	0	0	8	10	4.91124	10.0012	0.079509	0.079509	0	0.0220858	11	0.000108149	0.000000000000000E+000	1.05665e+06	0.000000000000000E+000	0.000000000000000E+000	0.0220858	0.0220858	0.0000000E+000	0.000000000000000E+000	0.0491185
1	1	0	1	0	0	0	9	10	4.91393	10.0014	0.0895104	0.0895104	0	0.024864	11	0.000121801	0.000000000000000E+000	1.14854e+06	0.000000000000000E+000	0.000000000000000E+000	0.024864	0.024864	0.0000000E+000	0.000000000000000E+000	0.049146
1	1	0	1	0	0	0	9.3382	10	4.91449	10.0011	0.0928929	0.0928929	0	0.0258036	11	0.000126418	0.000000000000000E+000	1.18337e+06	0.000000000000000E+000	0.000000000000000E+000	0.0258036	0.0258036	0.0000000E+000	0.000000000000000E+000	0.0491504

File: 2022_01_27 Ni60Co30Fe10Ox 1mg ref309_C05.mpt
EC-Lab ASCII FILE
Nb header lines : 63

Potentio Electrochemical Impedance Spectroscopy

Run on channel : 5 (SN 30436)
User :
CE vs. WE compliance from -10 V to 10 V
Electrode connection : standard
Potential control : Ewe
Ewe ctrl range : min = -10.00 V, max = 10.00 V
Safety Limits :
	Do not start on E overload
Acquisition started on : 01/27/2023 11:19:20.435
Loaded Setting File :  NONE
Saved on :
	File : 2022_01_27 Ni60Co30Fe10Ox 1mg ref309_C05.mpr
	Directory : C:\Users\grupogalan\Documents\EC-Lab\Data\Scott\
	Host : 169.254.104.159
Device : VSP (SN 1176)
Address : USB
EC-Lab for windows v11.46 (software)
Internet server v11.40 (firmware)
Command interpretor v11.40 (firmware)
Electrode material :
Initial state :
Electrolyte :
Comments :
Electrode surface area : 0.001 cm²
Characteristic mass : 0.001 g
Equivalent Weight : 0.000 g/eq.
Density : 0.000 g/cm3
Volume (V) : 0.001 cm³
Cycle Definition : Charge/Discharge alternance
Mode                Single sine
E (V)               0.0000
vs.                 Eoc
tE (h:m:s)          0:00:0.0000
record              0
dI                  0.000
unit dI             mA
dt (s)              0.000
fi                  200.000
unit fi             kHz
ff                  100.000
unit ff             mHz
Nd                  6
Points              per decade
spacing             Logarithmic
Va (mV)             10.0
pw                  0.10
Na                  2
corr                0
E range min (V)     -10.000
E range max (V)     10.000
I Range             Auto
Bandwidth           5
nc cycles           0
goto Ns'            0
nr cycles           0
inc. cycle          0

freq/Hz	Re(Z)/Ohm	-Im(Z)/Ohm	|Z|/Ohm	Phase(Z)/deg	time/s	<Ewe>/V	<I>/mA	Cs/µF	Cp/µF	cycle number	I Range	|Ewe|/V	|I|/A	Ns	(Q-Qo)/mA.h	Re(Y)/Ohm-1	Im(Y)/Ohm-1	|Y|/Ohm-1	Phase(Y)/deg	Re(C)/nF	Im(C)/nF	|C|/nF	Phase(C)/deg	Re(M)	Im(M)	|M|	Phase(M)/deg	Re(Permittivity)	Im(Permittivity)	|Permittivity|	Phase(Permittivity)/deg	Re(Resistivity)/Ohm.cm	Im(Resistivity)/Ohm.cm	|Resistivity|/Ohm.cm	Phase(Resistivity)/deg	Re(Conductivity)/mS/cm	Im(Conductivity)/mS/cm	|Conductivity|/mS/cm	Phase(Conductivity)/deg	Tan(Delta)	Loss Angle(Delta)/deg	dq/mA.h
199998	2.01486	-1.29782	2.39667	32.7865	2.7595	0.0612979	-0.188237	-0.61317	-0.179801	1	9	0.00834688	0.0034827	0	-3.72942e-05	0.350777	-0.225943	0.417246	-32.7865	-179.801	279.142	332.037	-122.786	0.0000000E+000	0.0000000E+000	0.0000000E+000	122.786	0.0000000E+000	0.0000000E+000	0.0000000E+000	-122.786	0.0000000E+000	0.0000000E+000	0.0000000E+000	32.7865	0.0000000E+000	0.0000000E+000	0.0000000E+000	-32.7865	-1.5525	-32.7865	-3.72942e-05
91291.2	1.61603	-0.101857	1.61924	3.60654	3.60348	0.0613009	-0.170478	-17.1159	-0.0677272	1	9	0.0103073	0.00636552	0	-8.77099e-05	0.616352	-0.0388483	0.617576	-3.60654	-67.7272	1074.53	1076.67	-93.6065	0.0000000E+000	0.0000000E+000	0.0000000E+000	93.6065	0.0000000E+000	0.0000000E+000	0.0000000E+000	-93.6065	0.0000000E+000	0.0000000E+000	0.0000000E+000	3.60654	0.0000000E+000	0.0000000E+000	0.0000000E+000	-3.60654	-15.8656	-3.60654	-1.81486e-05
41669.8	1.61002	0.200563	1.62247	-7.10083	4.58449	0.0613131	-0.167086	19.0436	0.291003	1	9	0.0098028	0.00604191	0	-0.000125839	0.611618	0.07619	0.616345	7.10083	291.003	2336.03	2354.09	-82.8992	0.0000000E+000	0.0000000E+000	0.0000000E+000	82.8992	0.0000000E+000	0.0000000E+000	0.0000000E+000	-82.8992	0.0000000E+000	0.0000000E+000	0.0000000E+000	-7.10083	0.0000000E+000	0.0000000E+000	0.0000000E+000	7.10083	8.02753	7.10083	-1.64677e-05
19020.9	1.7	0.535803	1.78244	-17.4937	5.42848	0.0611172	-0.164608	15.6165	1.41112	1	9	0.0104931	0.00588695	0	-0.000152539	0.535082	0.168646	0.561029	17.4937	1411.12	4477.22	4694.33	-72.5063	0.0000000E+000	0.0000000E+000	0.0000000E+000	72.5063	0.0000000E+000	0.0000000E+000	0.0000000E+000	-72.5063	0.0000000E+000	0.0000000E+000	0.0000000E+000	-17.4937	0.0000000E+000	0.0000000E+000	0.0000000E+000	17.4937	3.17281	17.4937	-1.7934e-05
8683.37	1.78533	1.08541	2.08938	-31.2981	6.01798	0.0613573	-0.186541	16.8864	4.55714	1	9	0.00967273	0.00462947	0	-0.000180357	0.408961	0.248634	0.478611	31.2981	4557.14	7495.73	8772.31	-58.7019	0.0000000E+000	0.0000000E+000	0.0000000E+000	58.7019	0.0000000E+000	0.0000000E+000	0.0000000E+000	-58.7019	0.0000000E+000	0.0000000E+000	0.0000000E+000	-31.2981	0.0000000E+000	0.0000000E+000	0.0000000E+000	31.2981	1.64483	31.2981	-1.45396e-05
3961.2	2.01855	2.23432	3.0111	-47.9044	6.89694	0.0613202	-0.13168	17.9824	9.9012	1	9	0.00922582	0.00306393	0	-0.000217078	0.222632	0.24643	0.332104	47.9044	9901.2	8945.03	13343.4	-42.0956	0.0000000E+000	0.0000000E+000	0.0000000E+000	42.0956	0.0000000E+000	0.0000000E+000	0.0000000E+000	-42.0956	0.0000000E+000	0.0000000E+000	0.0000000E+000	-47.9044	0.0000000E+000	0.0000000E+000	0.0000000E+000	47.9044	0.903429	47.9044	-1.5219e-05
1808.26	2.24988	4.36734	4.9128	-62.7442	8.29396	0.0614581	-0.0210648	20.1531	15.9264	1	10	0.0105035	0.00213798	0	-0.000257022	0.0932185	0.18095	0.20355	62.7442	15926.4	8204.65	17915.5	-27.2558	0.0000000E+000	0.0000000E+000	0.0000000E+000	27.2558	0.0000000E+000	0.0000000E+000	0.0000000E+000	-27.2558	0.0000000E+000	0.0000000E+000	0.0000000E+000	-62.7442	0.0000000E+000	0.0000000E+000	0.0000000E+000	62.7442	0.515161	62.7442	-1.53185e-05
825.264	2.56969	8.90228	9.26574	-73.8989	9.21667	0.061303	-0.0194822	21.6634	19.9972	1	10	0.00976145	0.0010535	0	-0.00026101	0.0299309	0.103691	0.107924	73.8989	19997.2	5772.28	20813.6	-16.1011	0.0000000E+000	0.0000000E+000	0.0000000E+000	16.1011	0.0000000E+000	0.0000000E+000	0.0000000E+000	-16.1011	0.0000000E+000	0.0000000E+000	0.0000000E+000	-73.8989	0.0000000E+000	0.0000000E+000	0.0000000E+000	73.8989	0.288655	73.8989	-2.06297e-06
377.051	3.42753	18.8605	19.1694	-79.7	10.1397	0.0613315	-0.0217545	22.3803	21.6648	1	10	0.00976246	0.000509272	0	-0.000266298	0.00932745	0.0513257	0.0521664	79.7	21664.8	3937.16	22019.7	-10.3	0.0000000E+000	0.0000000E+000	0.0000000E+000	10.3	0.0000000E+000	0.0000000E+000	0.0000000E+000	-10.3	0.0000000E+000	0.0000000E+000	0.0000000E+000	-79.7	0.0000000E+000	0.0000000E+000	0.0000000E+000	79.7	0.181731	79.7	-2.33563e-06
172.037	4.94134	39.8888	40.1937	-82.9383	11.3084	0.0613527	-0.00312391	23.1925	22.842	1	11	0.00985423	0.000245169	0	-0.000270068	0.00305865	0.0246908	0.0248796	82.9383	22842	2829.62	23016.6	-7.06171	0.0000000E+000	0.0000000E+000	0.0000000E+000	7.06171	0.0000000E+000	0.0000000E+000	0.0000000E+000	-7.06171	0.0000000E+000	0.0000000E+000	0.0000000E+000	-82.9383	0.0000000E+000	0.0000000E+000	0.0000000E+000	82.9383	0.123878	82.9383	-1.80899e-06
78.5176	11.1434	81.4166	82.1756	-82.2064	12.2355	0.0613428	-0.00276042	24.8966	24.4388	1	11	0.0095752	0.000116521	0	-0.000270753	0.00165018	0.0120567	0.0121691	82.2064	24438.8	3344.91	24666.6	-7.79358	0.0000000E+000	0.0000000E+000	0.0000000E+000	7.79358	0.0000000E+000	0.0000000E+000	0.0000000E+000	-7.79358	0.0000000E+000	0.0000000E+000	0.0000000E+000	-82.2064	0.0000000E+000	0.0000000E+000	0.0000000E+000	82.2064	0.136869	82.2064	-3.7722e-07
35.8372	21.2684	170.898	172.216	-82.906	13.1641	0.0614935	-0.0025097	25.9866	25.5903	1	11	0.0097095	5.63797e-05	0	-0.000271415	0.000717111	0.0057622	0.00580665	82.906	25590.3	3184.73	25787.7	-7.09404	0.0000000E+000	0.0000000E+000	0.0000000E+000	7.09404	0.0000000E+000	0.0000000E+000	0.0000000E+000	-7.09404	0.0000000E+000	0.0000000E+000	0.0000000E+000	-82.906	0.0000000E+000	0.0000000E+000	0.0000000E+000	82.906	0.124451	82.906	-2.72401e-07
16.367	52.7869	350.485	354.438	-81.435	14.323	0.0613884	-0.000241711	27.7448	27.1294	1	12	0.00980096	2.76521e-05	0	-0.000271676	0.000420189	0.0027899	0.00282137	81.435	27129.4	4085.98	27435.4	-8.56499	0.0000000E+000	0.0000000E+000	0.0000000E+000	8.56499	0.0000000E+000	0.0000000E+000	0.0000000E+000	-8.56499	0.0000000E+000	0.0000000E+000	0.0000000E+000	-81.435	0.0000000E+000	0.0000000E+000	0.0000000E+000	81.435	0.150611	81.435	-2.57817e-08
7.46893	74.8984	753.585	757.298	-84.324	15.0736	0.0613387	-0.000686808	28.2767	28.0001	1	12	0.0094094	1.2425e-05	0	-0.000271788	0.000130599	0.00131401	0.00132048	84.324	28000.1	2782.92	28138.1	-5.67596	0.0000000E+000	0.0000000E+000	0.0000000E+000	5.67596	0.0000000E+000	0.0000000E+000	0.0000000E+000	-5.67596	0.0000000E+000	0.0000000E+000	0.0000000E+000	-84.324	0.0000000E+000	0.0000000E+000	0.0000000E+000	84.324	0.0993894	84.324	9.35495e-08
5.04683	191.571	1032.47	1050.09	-79.4885	15.7849	0.0616355	-3.10985e-05	30.5439	29.5274	1	13	0.00976534	9.29954e-06	0	-0.000271887	0.000173731	0.000936319	0.0009523	79.4885	29527.4	5478.72	30031.4	-10.5115	0.0000000E+000	0.0000000E+000	0.0000000E+000	10.5115	0.0000000E+000	0.0000000E+000	0.0000000E+000	-10.5115	0.0000000E+000	0.0000000E+000	0.0000000E+000	-79.4885	0.0000000E+000	0.0000000E+000	0.0000000E+000	79.4885	0.185547	79.4885	-9.91398e-08

File: 2022_01_30 CoNx 1mg ref309_C05.mpt
EC-Lab ASCII FILE
Nb header lines : 63

Potentio Electrochemical Impedance Spectroscopy

Run on channel : 5 (SN 30436)
User :
CE vs. WE compliance from -10 V to 10 V
Electrode connection : standard
Potential control : Ewe
Ewe ctrl range : min = -10.00 V, max = 10.00 V
Safety Limits :
	Do not start on E overload
Acquisition started on : 01/30/2023 10:30:37.764
Loaded Setting File :  NONE
Saved on :
	File : 2022_01_30 CoNx 1mg ref309_C05.mpr
	Directory : C:\Users\grupogalan\Documents\EC-Lab\Data\Scott\
	Host : 169.254.104.159
Device : VSP (SN 1176)
Address : USB
EC-Lab for windows v11.46 (software)
Internet server v11.40 (firmware)
Command interpretor v11.40 (firmware)
Electrode material :
Initial state :
Electrolyte :
Comments :
Electrode surface area : 0.001 cm²
Characteristic mass : 0.001 g
Equivalent Weight : 0.000 g/eq.
Density : 0.000 g/cm3
Volume (V) : 0.001 cm³
Cycle Definition : Charge/Discharge alternance
Mode                Single sine
E (V)               0.0000
vs.                 Eoc
tE (h:m:s)          0:00:0.0000
record              0
dI                  0.000
unit dI             mA
dt (s)              0.000
fi                  200.000
unit fi             kHz
ff                  100.000
unit ff             mHz
Nd                  6
Points              per decade
spacing             Logarithmic
Va (mV)             10.0
pw                  0.10
Na                  2
corr                0
E range min (V)     -10.000
E range max (V)     10.000
I Range             Auto
Bandwidth           5
nc cycles           0
goto Ns'            0
nr cycles           0
inc. cycle          0

freq/Hz	Re(Z)/Ohm	-Im(Z)/Ohm	|Z|/Ohm	Phase(Z)/deg	time/s	<Ewe>/V	<I>/mA	Cs/µF	Cp/µF	cycle number	I Range	|Ewe|/V	|I|/A	Ns	(Q-Qo)/mA.h	Re(Y)/Ohm-1	Im(Y)/Ohm-1	|Y|/Ohm-1	Phase(Y)/deg	Re(C)/nF	Im(C)/nF	|C|/nF	Phase(C)/deg	Re(M)	Im(M)	|M|	Phase(M)/deg	Re(Permittivity)	Im(Permittivity)	|Permittivity|	Phase(Permittivity)/deg	Re(Resistivity)/Ohm.cm	Im(Resistivity)/Ohm.cm	|Resistivity|/Ohm.cm	Phase(Resistivity)/deg	Re(Conductivity)/mS/cm	Im(Conductivity)/mS/cm	|Conductivity|/mS/cm	Phase(Conductivity)/deg	Tan(Delta)	Loss Angle(Delta)/deg	dq/mA.h
199998	1.38044	-1.33516	1.92048	44.0447	2.38049	-0.210703	-0.18287	-0.596022	-0.288075	1	9	0.00666856	0.00347234	0	-2.78506e-05	0.37428	-0.362003	0.520703	-44.0447	-288.075	297.845	414.366	-134.045	0.0000000E+000	0.0000000E+000	0.0000000E+000	134.045	0.0000000E+000	0.0000000E+000	0.0000000E+000	-134.045	0.0000000E+000	0.0000000E+000	0.0000000E+000	44.0447	0.0000000E+000	0.0000000E+000	0.0000000E+000	-44.0447	-1.03392	-44.0447	-2.78506e-05
91291.2	0.974665	-0.213686	0.997814	12.3659	3.36148	-0.210545	-0.1669	-8.15858	-0.37417	1	9	0.0100258	0.0100478	0	-9.90262e-05	0.978939	-0.214624	1.00219	-12.3659	-374.17	1706.66	1747.2	-102.366	0.0000000E+000	0.0000000E+000	0.0000000E+000	102.366	0.0000000E+000	0.0000000E+000	0.0000000E+000	-102.366	0.0000000E+000	0.0000000E+000	0.0000000E+000	12.3659	0.0000000E+000	0.0000000E+000	0.0000000E+000	-12.3659	-4.56119	-12.3659	-4.55238e-05
41669.8	0.988174	0.0444133	0.989171	-2.57342	4.34248	-0.210525	-0.167104	85.9975	0.173368	1	9	0.00997013	0.0100793	0	-0.000102799	1.00993	0.045391	1.01095	2.57342	173.368	3857.35	3861.25	-87.4266	0.0000000E+000	0.0000000E+000	0.0000000E+000	87.4266	0.0000000E+000	0.0000000E+000	0.0000000E+000	-87.4266	0.0000000E+000	0.0000000E+000	0.0000000E+000	-2.57342	0.0000000E+000	0.0000000E+000	0.0000000E+000	2.57342	22.2495	2.57342	2.65449e-06
19020.9	1.02141	0.274425	1.05763	-15.0387	5.46047	-0.21047	-0.156408	30.4905	2.0528	1	9	0.010034	0.00948728	0	-9.76889e-05	0.913129	0.245334	0.945512	15.0387	2052.8	7640.47	7911.43	-74.9613	0.0000000E+000	0.0000000E+000	0.0000000E+000	74.9613	0.0000000E+000	0.0000000E+000	0.0000000E+000	-74.9613	0.0000000E+000	0.0000000E+000	0.0000000E+000	-15.0387	0.0000000E+000	0.0000000E+000	0.0000000E+000	15.0387	3.72198	15.0387	3.66617e-06
8683.37	1.05917	0.585115	1.21004	-28.9176	6.18697	-0.210595	-0.187566	31.3249	7.32445	1	9	0.0101951	0.00842546	0	-0.000139471	0.723379	0.399616	0.82642	28.9176	7324.45	13258.6	15147.2	-61.0824	0.0000000E+000	0.0000000E+000	0.0000000E+000	61.0824	0.0000000E+000	0.0000000E+000	0.0000000E+000	-61.0824	0.0000000E+000	0.0000000E+000	0.0000000E+000	-28.9176	0.0000000E+000	0.0000000E+000	0.0000000E+000	28.9176	1.81018	28.9176	-2.05058e-05
3961.2	1.15111	1.15254	1.62892	-45.0355	7.06696	-0.210599	-0.163899	34.8609	17.4521	1	9	0.00903134	0.00554436	0	-0.000176802	0.433825	0.434364	0.613903	45.0355	17452.1	17430.5	24665.7	-44.9645	0.0000000E+000	0.0000000E+000	0.0000000E+000	44.9645	0.0000000E+000	0.0000000E+000	0.0000000E+000	-44.9645	0.0000000E+000	0.0000000E+000	0.0000000E+000	-45.0355	0.0000000E+000	0.0000000E+000	0.0000000E+000	45.0355	0.998761	45.0355	-1.64909e-05
1808.26	1.32568	2.3959	2.7382	-61.0437	8.21197	-0.210393	-0.166713	36.7358	28.1252	1	9	0.00976514	0.00356626	0	-0.00022408	0.17681	0.319549	0.365203	61.0437	28125.2	15562	32143.4	-28.9563	0.0000000E+000	0.0000000E+000	0.0000000E+000	28.9563	0.0000000E+000	0.0000000E+000	0.0000000E+000	-28.9563	0.0000000E+000	0.0000000E+000	0.0000000E+000	-61.0437	0.0000000E+000	0.0000000E+000	0.0000000E+000	61.0437	0.553312	61.0437	-1.85141e-05
825.264	1.51103	4.98203	5.20613	-73.1277	9.38569	-0.210561	-0.0207814	38.7098	35.4489	1	10	0.0097035	0.00186386	0	-0.000242916	0.0557496	0.183813	0.192081	73.1277	35448.9	10751.5	37043.5	-16.8723	0.0000000E+000	0.0000000E+000	0.0000000E+000	16.8723	0.0000000E+000	0.0000000E+000	0.0000000E+000	-16.8723	0.0000000E+000	0.0000000E+000	0.0000000E+000	-73.1277	0.0000000E+000	0.0000000E+000	0.0000000E+000	73.1277	0.303295	73.1277	-1.88123e-06
377.051	1.77439	10.6507	10.7975	-80.5415	10.3087	-0.210412	-0.0207106	39.6315	38.5612	1	10	0.00953719	0.000883276	0	-0.000246225	0.0152195	0.0913547	0.0926138	80.5415	38561.2	6424.2	39092.7	-9.45847	0.0000000E+000	0.0000000E+000	0.0000000E+000	9.45847	0.0000000E+000	0.0000000E+000	0.0000000E+000	-9.45847	0.0000000E+000	0.0000000E+000	0.0000000E+000	-80.5415	0.0000000E+000	0.0000000E+000	0.0000000E+000	80.5415	0.166597	80.5415	-1.97454e-06
172.037	2.75526	22.3232	22.4926	-82.9638	11.2274	-0.210586	-0.022489	41.4422	40.8203	1	10	0.00949448	0.000422116	0	-0.000251304	0.00544609	0.0441243	0.0444591	82.9638	40820.3	5038.29	41130.1	-7.03621	0.0000000E+000	0.0000000E+000	0.0000000E+000	7.03621	0.0000000E+000	0.0000000E+000	0.0000000E+000	-7.03621	0.0000000E+000	0.0000000E+000	0.0000000E+000	-82.9638	0.0000000E+000	0.0000000E+000	0.0000000E+000	82.9638	0.123426	82.9638	-1.90768e-06
78.5176	4.7352	48.4424	48.6733	-84.4171	12.4035	-0.210508	-0.00274308	41.8434	41.4474	1	11	0.00972338	0.000199768	0	-0.000253806	0.00199875	0.0204477	0.0205452	84.4171	41447.4	4051.45	41644.9	-5.58288	0.0000000E+000	0.0000000E+000	0.0000000E+000	5.58288	0.0000000E+000	0.0000000E+000	0.0000000E+000	-5.58288	0.0000000E+000	0.0000000E+000	0.0000000E+000	-84.4171	0.0000000E+000	0.0000000E+000	0.0000000E+000	84.4171	0.0977492	84.4171	-4.39621e-07
35.8372	8.57164	99.8413	100.209	-85.093	13.3321	-0.210371	-0.00279192	44.4812	44.1557	1	11	0.0095155	9.49569e-05	0	-0.000254594	0.000853599	0.00994261	0.00997919	85.093	44155.7	3790.88	44318.2	-4.90696	0.0000000E+000	0.0000000E+000	0.0000000E+000	4.90696	0.0000000E+000	0.0000000E+000	0.0000000E+000	-4.90696	0.0000000E+000	0.0000000E+000	0.0000000E+000	-85.093	0.0000000E+000	0.0000000E+000	0.0000000E+000	85.093	0.0858527	85.093	-4.14347e-07
16.367	16.9391	207.435	208.125	-85.3316	14.469	-0.21044	2.63992e-05	46.8782	46.5676	1	12	0.00933761	4.48653e-05	0	-0.000255245	0.000391059	0.00478886	0.0048048	85.3316	46567.6	3802.72	46722.6	-4.66842	0.0000000E+000	0.0000000E+000	0.0000000E+000	4.66842	0.0000000E+000	0.0000000E+000	0.0000000E+000	-4.66842	0.0000000E+000	0.0000000E+000	0.0000000E+000	-85.3316	0.0000000E+000	0.0000000E+000	0.0000000E+000	85.3316	0.0816601	85.3316	-4.74683e-07
7.46893	57.5002	438.752	442.504	-82.5337	15.2186	-0.210451	-0.000799625	48.5672	47.7471	1	12	0.0095391	2.15571e-05	0	-0.000255239	0.000293654	0.00224071	0.00225987	82.5337	47747.1	6257.44	48155.4	-7.46629	0.0000000E+000	0.0000000E+000	0.0000000E+000	7.46629	0.0000000E+000	0.0000000E+000	0.0000000E+000	-7.46629	0.0000000E+000	0.0000000E+000	0.0000000E+000	-82.5337	0.0000000E+000	0.0000000E+000	0.0000000E+000	82.5337	0.131054	82.5337	2.17288e-07
3.4086	83.2051	931.616	935.325	-84.8963	16.6812	-0.210575	-0.000288153	50.1196	49.723	1	13	0.00946546	1.012e-05	0	-0.000255442	9.51097e-05	0.00106491	0.00106915	84.8963	49723	4440.89	49920.9	-5.10369	0.0000000E+000	0.0000000E+000	0.0000000E+000	5.10369	0.0000000E+000	0.0000000E+000	0.0000000E+000	-5.10369	0.0000000E+000	0.0000000E+000	0.0000000E+000	-84.8963	0.0000000E+000	0.0000000E+000	0.0000000E+000	84.8963	0.0893126	84.8963	-4.53838e-09