Folder: EC-Lab-Processing/Data (part 10)

File: 2025-02-10 exp 10 CV 2000mvs_C05.mpt
EC-Lab ASCII FILE
Nb header lines : 59

Cyclic Voltammetry

Run on channel : 5 (SN 39658)
User :
CE vs. WE compliance from -10 V to 10 V
Electrode connection : standard
Potential control : Ewe
Ewe ctrl range : min = -2.50 V, max = 2.50 V
Safety Limits :
	Do not start on E overload
Acquisition started on : 02/10/2025 13:00:49.750
Loaded Setting File :  NONE
Saved on :
	File : 2025-02-10 exp 10 CV 2000mvs_C05.mpr
	Directory : C:\Users\thefo\OneDrive\Documents\EC-Lab\Data\CHEM 451\
	Host : 172.24.113.132
Device : VSP (SN 1910)
Address : USB
EC-Lab for windows v11.46 (software)
Internet server v11.40 (firmware)
Command interpretor v11.40 (firmware)
Electrode material : Au/Pd
Initial state :
Electrolyte : NaCl (0.2M)
Comments : Fe(CN)63-/Fe(CN)64- 5.10-3 M
Current amplifier : VSPB-4A
Reference electrode : SCE Saturated Calomel Electrode (0.241 V)
Electrode surface area : 0.001 cm²
Characteristic mass : 0.001 g
Equivalent Weight : 0.000 g/eq.
Density : 0.000 g/cm3
Volume (V) : 0.001 cm³
Cycle Definition : Charge/Discharge alternance
Ei (V)              0.000
vs.                 Eoc
dE/dt               2.000
dE/dt unit          V/s
E1 (V)              -0.200
vs.                 Ref
Step percent        50
N                   10
E range min (V)     -2.500
E range max (V)     2.500
I Range             Auto
I Range min         Unset
I Range max         Unset
I Range init        Unset
Bandwidth           4
E2 (V)              0.500
vs.                 Ref
nc cycles           0
Reverse Scan        1
Ef (V)              0.000
vs.                 Ref

mode	ox/red	error	control changes	counter inc.	time/s	control/V	Ewe/V	<I>/mA	cycle number	(Q-Qo)/C	I Range	P/W
2	1	0	1	0	0.000000000000000E+000	0.305183	0.305448	5.29255e-05	1	0.0000000E+000	14	1.6166e-08
2	0	0	1	0	0.0371	0.230959	0.231372	-0.0718365	1	-5.94178e-07	13	-1.6621e-05
2	0	0	1	0	0.0451	0.214954	0.215387	-0.0914157	1	-1.24816e-06	13	-1.96898e-05
2	0	0	1	0	0.0681	0.16899	0.169273	-0.136084	1	-3.75874e-06	13	-2.30353e-05
2	0	0	1	0	0.0911	0.123024	0.123236	-0.162583	1	-6.70622e-06	12	-2.00362e-05
2	0	0	1	0	0.0991	0.107019	0.107217	-0.161548	1	-8.00402e-06	12	-1.73207e-05
2	0	0	1	0	0.1071	0.0910137	0.091242	-0.158764	1	-9.2856e-06	12	-1.4486e-05
2	0	0	1	0	0.1151	0.0750086	0.0752359	-0.155686	1	-1.05432e-05	12	-1.17132e-05
2	0	0	1	0	0.1231	0.0590034	0.0591916	-0.152545	1	-1.17756e-05	12	-9.02941e-06
2	0	0	1	0	0.1311	0.0429982	0.0432545	-0.149816	1	-1.29844e-05	12	-6.4802e-06
2	0	0	1	0	0.1391	0.026993	0.0271837	-0.147434	1	-1.41728e-05	12	-4.0078e-06
2	0	0	1	0	0.1471	0.0109878	0.0111925	-0.1456	1	-1.53445e-05	12	-1.62962e-06
2	0	0	1	0	0.1551	-0.00501734	-0.00485177	-0.144309	1	-1.65031e-05	12	7.00155e-07
2	0	0	1	0	0.1631	-0.0210225	-0.0209056	-0.143068	1	-1.76518e-05	12	2.99091e-06
2	0	0	1	0	0.1711	-0.0370277	-0.0369011	-0.142229	1	-1.87928e-05	12	5.24841e-06
2	0	0	1	0	0.1791	-0.0530329	-0.0528764	-0.141772	1	-1.99287e-05	12	7.4964e-06
2	0	0	1	0	0.1871	-0.0690381	-0.0688889	-0.141523	1	-2.10616e-05	12	9.74938e-06
2	0	0	1	0	0.1951	-0.0850433	-0.0849204	-0.141463	1	-2.21933e-05	12	1.20131e-05
2	0	0	1	0	0.2031	-0.101048	-0.100888	-0.141519	1	-2.33252e-05	12	1.42777e-05
2	0	0	1	0	0.2111	-0.117054	-0.116909	-0.141837	1	-2.44586e-05	12	1.65821e-05
2	0	0	1	0	0.2191	-0.133059	-0.132942	-0.142235	1	-2.55948e-05	12	1.8909e-05
2	0	0	1	0	0.2271	-0.149064	-0.14896	-0.142754	1	-2.67346e-05	12	2.12646e-05
2	0	0	1	0	0.2351	-0.164969	-0.164821	-0.143204	1	-2.78781e-05	12	2.36031e-05
2	0	0	1	0	0.2431	-0.180974	-0.180832	-0.144	1	-2.90271e-05	12	2.60398e-05
2	0	0	1	0	0.2511	-0.19698	-0.196865	-0.144845	1	-3.01825e-05	12	2.8515e-05
2	0	0	1	0	0.2528	-0.19958	-0.199789	-0.139096	1	-3.04276e-05	12	2.77898e-05
2	0	0	1	0	0.2599	-0.185376	-0.185329	-0.104696	1	-3.12444e-05	12	1.94031e-05
2	0	0	1	0	0.2679	-0.169371	-0.169314	-0.0897454	1	-3.20171e-05	12	1.51952e-05
2	0	0	1	0	0.2759	-0.153465	-0.15337	-0.0790334	1	-3.26897e-05	12	1.21213e-05
2	0	0	1	0	0.2839	-0.13746	-0.137372	-0.07022	1	-3.32848e-05	12	9.64628e-06
2	0	0	1	0	0.2919	-0.121455	-0.121375	-0.0627336	1	-3.38149e-05	12	7.61427e-06
2	0	0	1	0	0.2999	-0.10545	-0.105394	-0.0561903	1	-3.42894e-05	12	5.92212e-06
2	0	0	1	0	0.3079	-0.0894447	-0.0893285	-0.0503078	1	-3.47145e-05	12	4.49392e-06
2	0	0	1	0	0.3159	-0.0734395	-0.0733511	-0.0450847	1	-3.50952e-05	12	3.30701e-06
2	0	0	1	0	0.3239	-0.0574343	-0.0573758	-0.0402057	1	-3.54354e-05	12	2.30683e-06
2	0	0	1	0	0.3319	-0.0414291	-0.0413538	-0.0356385	1	-3.57381e-05	12	1.47378e-06
2	0	0	1	0	0.3399	-0.025424	-0.0253264	-0.0313772	1	-3.60057e-05	12	7.94674e-07
2	0	0	1	0	0.3479	-0.00941877	-0.00933203	-0.0274266	1	-3.62406e-05	12	2.55946e-07
2	0	0	1	0	0.3559	0.00658642	0.00673558	-0.0234817	1	-3.64434e-05	12	-1.58163e-07
2	0	0	1	0	0.3639	0.0225916	0.0227438	-0.0197693	1	-3.66161e-05	12	-4.49629e-07
2	0	0	1	0	0.3719	0.0385968	0.0387753	-0.0160414	1	-3.6759e-05	12	-6.22012e-07
2	0	0	1	0	0.3799	0.054602	0.0547602	-0.0123093	1	-3.68721e-05	12	-6.74062e-07
2	0	0	1	0	0.3879	0.0706071	0.0707684	-0.00834002	1	-3.69545e-05	12	-5.9021e-07
2	0	0	1	0	0.3959	0.0866123	0.0867904	-0.00407067	1	-3.7004e-05	12	-3.53295e-07
2	1	0	1	0	0.4039	0.102618	0.10281	0.000725336	1	-3.70173e-05	12	7.4572e-08
2	1	0	1	0	0.4119	0.118623	0.118753	0.00638757	1	-3.69887e-05	12	7.58541e-07
2	1	0	1	0	0.4199	0.134628	0.134799	0.0134113	1	-3.69095e-05	12	1.80783e-06
2	1	0	1	0	0.4279	0.150583	0.150748	0.0219923	1	-3.67675e-05	12	3.31529e-06
2	1	0	1	0	0.4359	0.166538	0.166691	0.0332331	1	-3.65469e-05	12	5.53967e-06
2	1	0	1	0	0.4439	0.182543	0.182656	0.0469286	1	-3.62263e-05	12	8.57179e-06
2	1	0	1	0	0.4519	0.198549	0.198677	0.0631147	1	-3.57858e-05	12	1.25394e-05
2	1	0	1	0	0.4599	0.214554	0.214722	0.0808585	1	-3.52088e-05	12	1.73621e-05
2	1	0	1	0	0.4679	0.230559	0.2307	0.0984806	1	-3.44893e-05	12	2.27195e-05
2	1	0	1	0	0.4759	0.246564	0.24671	0.114012	1	-3.36356e-05	12	2.8128e-05
2	1	0	1	0	0.4839	0.262569	0.262738	0.125789	1	-3.26724e-05	12	3.30495e-05
2	1	0	1	0	0.4919	0.278574	0.278723	0.13268	1	-3.16346e-05	12	3.6981e-05
2	1	0	1	0	0.4999	0.29458	0.294754	0.134918	1	-3.05615e-05	12	3.97675e-05
2	1	0	1	0	0.5079	0.310585	0.310741	0.13347	1	-2.94862e-05	12	4.14746e-05
2	1	0	1	0	0.5159	0.32659	0.326747	0.130065	1	-2.84313e-05	12	4.24983e-05
2	1	0	1	0	0.5239	0.342595	0.342772	0.125752	1	-2.74083e-05	12	4.31041e-05
2	1	0	1	0	0.5319	0.3586	0.358784	0.121261	1	-2.64208e-05	12	4.35066e-05
2	1	0	1	0	0.5399	0.374606	0.374798	0.117203	1	-2.54675e-05	12	4.39274e-05
2	1	0	1	0	0.5479	0.390611	0.390783	0.113619	1	-2.4545e-05	12	4.44005e-05
2	1	0	1	0	0.5559	0.406616	0.406793	0.110643	1	-2.36486e-05	12	4.50088e-05
2	1	0	1	0	0.5639	0.422621	0.422817	0.108085	1	-2.27743e-05	12	4.57002e-05
2	1	0	1	0	0.5719	0.438626	0.438817	0.105978	1	-2.19184e-05	12	4.6505e-05
2	1	0	1	0	0.5799	0.454631	0.454781	0.104271	1	-2.10776e-05	12	4.74204e-05
2	1	0	1	0	0.5879	0.470537	0.470732	0.102893	1	-2.02498e-05	12	4.84348e-05
2	1	0	1	0	0.5959	0.486542	0.486731	0.101855	1	-1.94313e-05	12	4.95763e-05
2	1	0	0	0	0.6026	0.499946	0.500252	0.101133	1	-1.87515e-05	12	5.05918e-05
2	1	0	1	1	0.6063	0.493344	0.493591	0.0762768	1	-1.84446e-05	12	3.76496e-05
2	1	0	1	1	0.6143	0.477339	0.477585	0.0607455	1	-1.79039e-05	12	2.90111e-05
2	1	0	1	1	0.6223	0.461334	0.46156	0.0504517	1	-1.7462e-05	12	2.32865e-05
2	1	0	1	1	0.6303	0.445428	0.445664	0.0423204	1	-1.70921e-05	12	1.88607e-05
2	1	0	1	1	0.6383	0.429423	0.429679	0.0354004	1	-1.67825e-05	12	1.52108e-05
2	1	0	1	1	0.6463	0.413418	0.413656	0.0293217	1	-1.65244e-05	12	1.21291e-05
2	1	0	1	1	0.6543	0.397413	0.397671	0.0238497	1	-1.63125e-05	12	9.48435e-06
2	1	0	1	1	0.6623	0.381408	0.381649	0.0186538	1	-1.61431e-05	12	7.11921e-06
2	1	0	1	1	0.6703	0.365403	0.365624	0.0136114	1	-1.60147e-05	12	4.97666e-06
2	1	0	1	1	0.6783	0.349397	0.349614	0.00857113	1	-1.59263e-05	12	2.99659e-06
2	1	0	1	1	0.6863	0.333392	0.33365	0.00331695	1	-1.58791e-05	12	1.1067e-06
2	0	0	1	1	0.6943	0.317387	0.317578	-0.00255107	1	-1.58762e-05	12	-8.10164e-07
2	0	0	1	1	0.7023	0.301382	0.301582	-0.00927367	1	-1.59236e-05	12	-2.79677e-06
2	0	0	1	1	0.7103	0.285377	0.285615	-0.0174672	1	-1.60302e-05	12	-4.98888e-06
2	0	0	1	1	0.7183	0.269371	0.269599	-0.0276974	1	-1.62107e-05	12	-7.46719e-06
2	0	0	1	1	0.7263	0.253366	0.253638	-0.0406943	1	-1.6484e-05	12	-1.03216e-05
2	0	0	1	1	0.7343	0.237361	0.237626	-0.0566407	1	-1.6873e-05	12	-1.34593e-05
2	0	0	1	1	0.7423	0.221356	0.221579	-0.0750644	1	-1.74002e-05	12	-1.66327e-05
2	0	0	1	1	0.7503	0.205351	0.205579	-0.0947673	1	-1.80814e-05	12	-1.94822e-05
2	0	0	1	1	0.7583	0.189346	0.1896	-0.11385	1	-1.8919e-05	12	-2.15859e-05
2	0	0	1	1	0.7663	0.17334	0.173587	-0.130042	1	-1.98986e-05	12	-2.25737e-05
2	0	0	1	1	0.7743	0.157335	0.157552	-0.141428	1	-2.09887e-05	12	-2.22823e-05
2	0	0	1	1	0.7823	0.14143	0.141643	-0.147432	1	-2.21473e-05	12	-2.08827e-05
2	0	0	1	1	0.7903	0.125425	0.125624	-0.149254	1	-2.33367e-05	12	-1.87499e-05
2	0	0	1	1	0.7983	0.10942	0.109625	-0.148093	1	-2.45272e-05	12	-1.62346e-05
2	0	0	1	1	0.8063	0.0934145	0.0936238	-0.14525	1	-2.57008e-05	12	-1.35989e-05
2	0	0	1	1	0.8143	0.0774093	0.0776538	-0.142081	1	-2.685e-05	12	-1.10331e-05
2	0	0	1	1	0.8223	0.0614042	0.0616678	-0.138975	1	-2.79738e-05	12	-8.57032e-06
2	0	0	1	1	0.8303	0.045399	0.045649	-0.136252	1	-2.90741e-05	12	-6.21976e-06
2	0	0	1	1	0.8383	0.0293938	0.0296398	-0.13396	1	-3.01543e-05	12	-3.97053e-06
2	0	0	1	1	0.8463	0.0133886	0.0136093	-0.132023	1	-3.12178e-05	12	-1.79673e-06
2	0	0	0	1	0.8528	0.00038441	0.00055255	-0.130791	1	-3.20723e-05	12	-7.22687e-08
2	0	0	1	1	0.853	-1.57199e-05	0.00011333	-0.131007	1	-3.20985e-05	12	-1.4847e-08

File: 2025-02-10 exp 11 CV 10000mvs_C05.mpt
EC-Lab ASCII FILE
Nb header lines : 59

Cyclic Voltammetry

Run on channel : 5 (SN 39658)
User :
CE vs. WE compliance from -10 V to 10 V
Electrode connection : standard
Potential control : Ewe
Ewe ctrl range : min = -2.50 V, max = 2.50 V
Safety Limits :
	Do not start on E overload
Acquisition started on : 02/10/2025 13:02:30.166
Loaded Setting File :  NONE
Saved on :
	File : 2025-02-10 exp 10 CV 10000mvs_C05.mpr
	Directory : C:\Users\thefo\OneDrive\Documents\EC-Lab\Data\CHEM 451\
	Host : 172.24.113.132
Device : VSP (SN 1910)
Address : USB
EC-Lab for windows v11.46 (software)
Internet server v11.40 (firmware)
Command interpretor v11.40 (firmware)
Electrode material : Au/Pd
Initial state :
Electrolyte : NaCl (0.2M)
Comments : Fe(CN)63-/Fe(CN)64- 5.10-3 M
Current amplifier : VSPB-4A
Reference electrode : SCE Saturated Calomel Electrode (0.241 V)
Electrode surface area : 0.001 cm²
Characteristic mass : 0.001 g
Equivalent Weight : 0.000 g/eq.
Density : 0.000 g/cm3
Volume (V) : 0.001 cm³
Cycle Definition : Charge/Discharge alternance
Ei (V)              0.000
vs.                 Eoc
dE/dt               10.000
dE/dt unit          V/s
E1 (V)              -0.200
vs.                 Ref
Step percent        50
N                   10
E range min (V)     -2.500
E range max (V)     2.500
I Range             1 mA
I Range min         Unset
I Range max         Unset
I Range init        Unset
Bandwidth           4
E2 (V)              0.500
vs.                 Ref
nc cycles           0
Reverse Scan        1
Ef (V)              0.000
vs.                 Ref

mode	ox/red	error	control changes	counter inc.	time/s	control/V	Ewe/V	<I>/mA	cycle number	(Q-Qo)/C	I Range	P/W
2	1	0	0	0	0.000000000000000E+000	0.291579	0.291775	7.01963e-05	1	0.0000000E+000	12	2.04815e-08
2	0	0	1	0	0.0011	0.280575	0.281114	-0.0405382	1	-4.13275e-08	12	-1.13958e-05
2	0	0	1	0	0.0031	0.260569	0.261022	-0.0718243	1	-1.57588e-07	12	-1.87477e-05
2	0	0	1	0	0.0051	0.240562	0.241012	-0.102493	1	-3.34889e-07	12	-2.47021e-05
2	0	0	1	0	0.0071	0.220556	0.221066	-0.137423	1	-5.78107e-07	12	-3.03796e-05
2	0	0	1	0	0.0091	0.200549	0.201087	-0.176961	1	-8.96314e-07	12	-3.55846e-05
2	0	0	1	0	0.0111	0.180543	0.181048	-0.219039	1	-1.29647e-06	12	-3.96565e-05
2	0	0	1	0	0.0131	0.160536	0.161055	-0.259978	1	-1.77967e-06	12	-4.18706e-05
2	0	0	1	0	0.0151	0.140558	0.141025	-0.295255	1	-2.33867e-06	12	-4.16382e-05
2	0	0	1	0	0.0171	0.120623	0.121024	-0.321888	1	-2.95875e-06	12	-3.89562e-05
2	0	0	1	0	0.0191	0.100617	0.101007	-0.339035	1	-3.6217e-06	12	-3.42448e-05
2	0	0	1	0	0.0211	0.0806104	0.0810105	-0.347529	1	-4.30935e-06	12	-2.81535e-05
2	0	0	1	0	0.0231	0.0606039	0.0609814	-0.350101	1	-5.00742e-06	12	-2.13496e-05
2	0	0	1	0	0.0251	0.0405974	0.0409035	-0.349025	1	-5.7065e-06	12	-1.42764e-05
2	0	0	1	0	0.0271	0.020591	0.0208967	-0.346392	1	-6.4017e-06	12	-7.23846e-06
2	0	0	1	0	0.0291	0.000584474	0.000903714	-0.343658	1	-7.09147e-06	12	-3.10568e-07
2	0	0	1	0	0.0311	-0.019422	-0.0191572	-0.340982	1	-7.77585e-06	12	6.53226e-06
2	0	0	1	0	0.0331	-0.0394285	-0.0391534	-0.338971	1	-8.45557e-06	12	1.32719e-05
2	0	0	1	0	0.0351	-0.059435	-0.059157	-0.337647	1	-9.132e-06	12	1.99742e-05
2	0	0	1	0	0.0371	-0.0794415	-0.0791702	-0.337116	1	-9.80669e-06	12	2.66895e-05
2	0	0	1	0	0.0391	-0.099448	-0.0991951	-0.337287	1	-1.0481e-05	12	3.34572e-05
2	0	0	1	0	0.0411	-0.119454	-0.119217	-0.338054	1	-1.11564e-05	12	4.03017e-05
2	0	0	1	0	0.0431	-0.139461	-0.139167	-0.339502	1	-1.18341e-05	12	4.72476e-05
2	0	0	1	0	0.0451	-0.159467	-0.159206	-0.341405	1	-1.25152e-05	12	5.43537e-05
2	0	0	1	0	0.0471	-0.179379	-0.179085	-0.343546	1	-1.32004e-05	12	6.15241e-05
2	0	0	1	0	0.0485	-0.193378	-0.193115	-0.345581	1	-1.36824e-05	12	6.67369e-05
2	0	0	1	0	0.049	-0.19838	-0.198013	-0.34643	1	-1.38554e-05	12	6.85978e-05
2	0	0	0	0	0.0492	-0.200381	-0.200076	-0.346875	1	-1.39248e-05	12	6.94013e-05
2	0	0	1	0	0.0494	-0.19838	-0.200133	-0.317286	1	-1.39882e-05	12	6.34993e-05
2	0	0	1	0	0.0505	-0.187376	-0.187676	-0.242292	1	-1.42592e-05	12	4.54723e-05
2	0	0	1	0	0.0525	-0.167442	-0.167566	-0.194693	1	-1.469e-05	12	3.26239e-05
2	0	0	1	0	0.0545	-0.147464	-0.147568	-0.16328	1	-1.50445e-05	12	2.40949e-05
2	0	0	1	0	0.0565	-0.127457	-0.127576	-0.138978	1	-1.53442e-05	12	1.77302e-05
2	0	0	1	0	0.0585	-0.107451	-0.107518	-0.118785	1	-1.55998e-05	12	1.27715e-05
2	0	0	1	0	0.0605	-0.0874441	-0.0875727	-0.101271	1	-1.5818e-05	12	8.86855e-06
2	0	0	1	0	0.0625	-0.0674376	-0.0675245	-0.0856518	1	-1.60033e-05	12	5.7836e-06
2	0	0	1	0	0.0645	-0.0474311	-0.0475092	-0.071489	1	-1.6159e-05	12	3.39639e-06
2	0	0	1	0	0.0665	-0.0274246	-0.0274844	-0.0585578	1	-1.62877e-05	12	1.60942e-06
2	0	0	1	0	0.0685	-0.00741812	-0.00747224	-0.0460794	1	-1.63911e-05	12	3.44316e-07
2	0	0	1	0	0.0705	0.0125884	0.0125728	-0.0345636	1	-1.64705e-05	12	-4.3456e-07
2	0	0	1	0	0.0725	0.0325948	0.0326135	-0.0232716	1	-1.65272e-05	12	-7.5897e-07
2	0	0	1	0	0.0745	0.0526013	0.0526362	-0.0119835	1	-1.65613e-05	12	-6.30768e-07
2	0	0	1	0	0.0765	0.0726078	0.0726579	-0.000585297	1	-1.65727e-05	12	-4.25264e-08
2	1	0	1	0	0.0785	0.0926143	0.0926265	0.0117579	1	-1.65604e-05	12	1.08909e-06
2	1	0	1	0	0.0805	0.112621	0.112616	0.0253732	1	-1.65219e-05	12	2.85744e-06
2	1	0	1	0	0.0825	0.132599	0.132588	0.041008	1	-1.64541e-05	12	5.43717e-06
2	1	0	1	0	0.0845	0.152534	0.152488	0.0598348	1	-1.63514e-05	12	9.12407e-06
2	1	0	1	0	0.0865	0.17254	0.172505	0.0826591	1	-1.62068e-05	12	1.42591e-05
2	1	0	1	0	0.0885	0.192547	0.192498	0.109767	1	-1.60118e-05	12	2.11299e-05
2	1	0	1	0	0.0905	0.212553	0.212421	0.140864	1	-1.57582e-05	12	2.99225e-05
2	1	0	1	0	0.0925	0.23256	0.232476	0.174336	1	-1.54397e-05	12	4.0529e-05
2	1	0	1	0	0.0945	0.252566	0.252494	0.207598	1	-1.50544e-05	12	5.24172e-05
2	1	0	1	0	0.0965	0.272573	0.272543	0.237575	1	-1.46061e-05	12	6.47495e-05
2	1	0	1	0	0.0985	0.292579	0.292577	0.261098	1	-1.41049e-05	12	7.63913e-05
2	1	0	1	0	0.1005	0.312585	0.312582	0.276507	1	-1.35654e-05	12	8.64312e-05
2	1	0	1	0	0.1025	0.332592	0.332594	0.283778	1	-1.30042e-05	12	9.43826e-05
2	1	0	1	0	0.1045	0.352598	0.352656	0.284134	1	-1.2436e-05	12	0.000100201
2	1	0	1	0	0.1065	0.372605	0.372704	0.280007	1	-1.18722e-05	12	0.00010436
2	1	0	1	0	0.1085	0.392611	0.392688	0.273578	1	-1.13192e-05	12	0.000107431
2	1	0	1	0	0.1105	0.412618	0.412719	0.266525	1	-1.07798e-05	12	0.00011
2	1	0	1	0	0.1125	0.432624	0.432724	0.260005	1	-1.02539e-05	12	0.00011251
2	1	0	1	0	0.1145	0.452547	0.452593	0.254243	1	-9.74018e-06	12	0.000115069
2	1	0	1	0	0.1165	0.472537	0.472645	0.250029	1	-9.23637e-06	12	0.000118175
2	1	0	1	0	0.1183	0.490543	0.490643	0.247149	1	-8.78896e-06	12	0.000121262
2	1	0	0	0	0.1192	0.499546	0.499679	0.246048	1	-8.56684e-06	12	0.000122945
2	1	0	1	0	0.1194	0.501547	0.502505	0.231066	1	-8.52062e-06	12	0.000116112
2	1	0	0	1	0.1198	0.499546	0.501168	0.215713	1	-8.43434e-06	12	0.000108108
2	1	0	1	1	0.1209	0.486542	0.487037	0.149117	1	-8.26898e-06	12	7.26253e-05
2	1	0	1	1	0.1229	0.466535	0.467005	0.114407	1	-8.00905e-06	12	5.34286e-05
2	1	0	1	1	0.1249	0.446579	0.44702	0.0888342	1	-7.80864e-06	12	3.97107e-05
2	1	0	1	1	0.1269	0.426622	0.427044	0.0681384	1	-7.65384e-06	12	2.90981e-05
2	1	0	1	1	0.1289	0.406616	0.407023	0.0505146	1	-7.53703e-06	12	2.05606e-05
2	1	0	1	1	0.1309	0.386609	0.387007	0.0347425	1	-7.45339e-06	12	1.34456e-05
2	1	0	1	1	0.1329	0.366603	0.36699	0.0201896	1	-7.39996e-06	12	7.40938e-06
2	1	0	1	1	0.1349	0.346596	0.346999	0.006078	1	-7.3751e-06	12	2.10906e-06
2	0	0	1	1	0.1369	0.32659	0.327017	-0.00821224	1	-7.37865e-06	12	-2.68555e-06
2	0	0	1	1	0.1389	0.306584	0.306989	-0.0235293	1	-7.41189e-06	12	-7.22325e-06
2	0	0	1	1	0.1409	0.286577	0.28698	-0.0408905	1	-7.47795e-06	12	-1.17348e-05
2	0	0	1	1	0.1429	0.266571	0.267012	-0.0617205	1	-7.58254e-06	12	-1.64801e-05
2	0	0	1	1	0.1449	0.246564	0.247026	-0.0872494	1	-7.73386e-06	12	-2.15529e-05
2	0	0	1	1	0.1469	0.226558	0.227014	-0.118276	1	-7.94232e-06	12	-2.68503e-05
2	0	0	1	1	0.1489	0.206551	0.207	-0.15453	1	-8.21858e-06	12	-3.19876e-05
2	0	0	1	1	0.1509	0.186545	0.187033	-0.193828	1	-8.57078e-06	12	-3.62522e-05
2	0	0	1	1	0.1529	0.166538	0.166998	-0.232801	1	-9.00134e-06	12	-3.88772e-05
2	0	0	1	1	0.1549	0.146532	0.146964	-0.267006	1	-9.50474e-06	12	-3.92401e-05
2	0	0	1	1	0.1569	0.126625	0.127032	-0.29289	1	-1.00675e-05	12	-3.72064e-05
2	0	0	1	1	0.1589	0.106619	0.107014	-0.309911	1	-1.06723e-05	12	-3.31647e-05
2	0	0	1	1	0.1609	0.0866123	0.0869813	-0.318341	1	-1.13016e-05	12	-2.76897e-05
2	0	0	1	1	0.1629	0.0666059	0.066965	-0.320734	1	-1.19411e-05	12	-2.1478e-05
2	0	0	1	1	0.1649	0.0465994	0.0469073	-0.319626	1	-1.25814e-05	12	-1.49928e-05
2	0	0	1	1	0.1669	0.0265929	0.0269164	-0.316973	1	-1.32178e-05	12	-8.53176e-06
2	0	0	1	1	0.1686	0.00958739	0.00993372	-0.314424	1	-1.37546e-05	12	-3.1234e-06
2	0	0	0	1	0.1694	0.0015848	0.00196569	-0.313105	1	-1.40058e-05	12	-6.15469e-07
2	0	0	1	1	0.1696	-0.00041585	-7.76356e-05	-0.312825	1	-1.40683e-05	12	2.42864e-08