Folder: EC-Lab-Processing/Data_1mg (part 10)

File: 2023_01_31 NiNx 1 mg 307ref set2_03_CP_C01.mpt
EC-Lab ASCII FILE
Nb header lines : 53

Chronopotentiometry

Run on channel : 1 (SN 21648)
User :
CE vs. WE compliance from -10 V to 10 V
Electrode connection : standard
Potential control : Ewe
Ewe ctrl range : min = -2.50 V, max = 2.50 V
Safety Limits :
	Do not start on E overload
Acquisition started on : 01/31/2023 10:44:48.640
Loaded Setting File :  C:\Users\grupogalan\Documents\EC-Lab\Data\Scott\_cyclic_pause_tafel.mps
Saved on :
	File : 2023_01_31 NiNx 1 mg 307ref set2_03_CP_C01.mpr
	Directory : C:\Users\grupogalan\Documents\EC-Lab\Data\Scott\
	Host : 169.254.104.159
Device : VSP (SN 1176)
Address : USB
EC-Lab for windows v11.46 (software)
Internet server v11.40 (firmware)
Command interpretor v11.40 (firmware)
Electrode material :
Initial state :
Electrolyte :
Comments :
Electrode surface area : 0.001 cm²
Characteristic mass : 0.001 g
Equivalent Weight : 0.000 g/eq.
Density : 0.000 g/cm3
Volume (V) : 0.001 cm³
Cycle Definition : Charge/Discharge alternance
Ns                  0                   1                   2                   3                   4                   5                   6                   7                   8                   9                   10                  11                  12
Is                  10.000              18.000              32.000              56.000              100.000             178.000             316.000             562.000             1.000               1.778               3.162               5.623               10.000
unit Is             µA                  µA                  µA                  µA                  µA                  µA                  µA                  µA                  mA                  mA                  mA                  mA                  mA
vs.                 <None>              <None>              <None>              <None>              <None>              <None>              <None>              <None>              <None>              <None>              <None>              <None>              <None>
ts (h:m:s)          0:03:0.0000         0:03:0.0000         0:03:0.0000         0:03:0.0000         0:03:0.0000         0:03:0.0000         0:03:0.0000         0:03:0.0000         0:03:0.0000         0:03:0.0000         0:03:0.0000         0:03:0.0000         0:03:0.0000
EM (V)              pass                pass                pass                pass                pass                pass                pass                pass                pass                pass                pass                pass                pass
dQM                 500.000             900.000             1.600               2.800               5.000               8.900               15.800              28.100              50.000              88.900              158.100             281.150             500.000
unit dQM            nA.h                nA.h                µA.h                µA.h                µA.h                µA.h                µA.h                µA.h                µA.h                µA.h                µA.h                µA.h                µA.h
record              <Ewe>               <Ewe>               <Ewe>               <Ewe>               <Ewe>               <Ewe>               <Ewe>               <Ewe>               <Ewe>               <Ewe>               <Ewe>               <Ewe>               <Ewe>
dEs (mV)            0.00                0.00                0.00                0.00                0.00                0.00                0.00                0.00                0.00                0.00                0.00                0.00                0.00
dts (s)             1.0000              1.0000              1.0000              1.0000              1.0000              1.0000              1.0000              1.0000              1.0000              1.0000              1.0000              1.0000              1.0000
E range min (V)     -2.500              -2.500              -2.500              -2.500              -2.500              -2.500              -2.500              -2.500              -2.500              -2.500              -2.500              -2.500              -2.500
E range max (V)     2.500               2.500               2.500               2.500               2.500               2.500               2.500               2.500               2.500               2.500               2.500               2.500               2.500
I Range             10 mA               10 mA               10 mA               10 mA               10 mA               10 mA               10 mA               10 mA               10 mA               10 mA               10 mA               10 mA               10 mA
Bandwidth           5                   5                   5                   5                   5                   5                   5                   5                   5                   5                   5                   5                   5
goto Ns'            0                   0                   0                   0                   0                   0                   0                   0                   0                   0                   0                   0                   0
nc cycles           0                   0                   0                   0                   0                   0                   0                   0                   0                   0                   0                   0                   0

mode	ox/red	error	control changes	Ns changes	counter inc.	Ns	time/s	control/mA	<Ewe>/V	I/mA	dQ/C	(Q-Qo)/C	half cycle	Q charge/discharge/mA.h	I Range	Energy charge/W.h	Energy discharge/W.h	Capacitance charge/µF	Capacitance discharge/µF	Q discharge/mA.h	Q charge/mA.h	Capacity/mA.h	Efficiency/%	cycle number	P/W
1	1	0	0	0	0	0	655.439	0.01	-0.115373	0.0104419	9.58022e-06	9.58022e-06	0	2.66117e-06	11	3.07027e-10	0.000000000000000E+000	0.000000000000000E+000	0.000000000000000E+000	0.000000000000000E+000	2.66117e-06	2.66117e-06	0.0000000E+000	0.000000000000000E+000	-1.20471e-06
1	1	0	0	0	0	0	711.439	0.01	0.64632	0.0101247	0.000570482	0.000570482	0	0.000158467	11	9.61106e-08	0.000000000000000E+000	748.965	0.000000000000000E+000	0.000000000000000E+000	0.000158467	0.000158467	0.0000000E+000	0.000000000000000E+000	6.54378e-06
1	1	0	0	0	0	0	767.439	0.01	0.635561	0.0108226	0.0011298	0.0011298	0	0.000313835	11	1.95825e-07	0.000000000000000E+000	1504.53	0.000000000000000E+000	0.000000000000000E+000	0.000313835	0.000313835	0.0000000E+000	0.000000000000000E+000	6.87841e-06
1	1	0	0	0	0	0	823.439	0.01	0.61314	0.0105054	0.00169051	0.00169051	0	0.000469586	11	2.93218e-07	0.000000000000000E+000	2320.5	0.000000000000000E+000	0.000000000000000E+000	0.000469586	0.000469586	0.0000000E+000	0.000000000000000E+000	6.44125e-06
1	1	0	1	0	0	1	878.491	0.018	0.654782	0.0170404	0.000792405	0.00259361	0	0.000720448	11	4.56882e-07	0.000000000000000E+000	3367.65	0.000000000000000E+000	0.000000000000000E+000	0.000720448	0.000720448	0.0000000E+000	0.000000000000000E+000	1.11578e-05
1	1	0	1	0	0	1	934.491	0.018	0.639876	0.0180555	0.00180129	0.00360249	0	0.00100069	11	6.38356e-07	0.000000000000000E+000	4769.94	0.000000000000000E+000	0.000000000000000E+000	0.00100069	0.00100069	0.0000000E+000	0.000000000000000E+000	1.15533e-05
[...]
1	1	0	0	0	0	8	2215.49	1	1.11985	1.00034	0.12104	0.350307	0	0.0973076	11	9.52801e-05	0.000000000000000E+000	283598	0.000000000000000E+000	0.000000000000000E+000	0.0973076	0.0973076	0.0000000E+000	0.000000000000000E+000	0.00112024
1	1	0	0	0	0	8	2271.49	1	1.12639	1.0006	0.17706	0.406326	0	0.112868	11	0.00011276	0.000000000000000E+000	327216	0.000000000000000E+000	0.000000000000000E+000	0.112868	0.112868	0.0000000E+000	0.000000000000000E+000	0.00112707
1	1	0	1	0	0	9	2326.49	1.778	1.1972	1.77935	0.0924844	0.501812	0	0.139392	11	0.000144371	0.000000000000000E+000	382311	0.000000000000000E+000	0.000000000000000E+000	0.139392	0.139392	0.0000000E+000	0.000000000000000E+000	0.00213024
1	1	0	1	0	0	9	2382.49	1.778	1.20492	1.77839	0.192083	0.60141	0	0.167058	11	0.000177611	0.000000000000000E+000	455512	0.000000000000000E+000	0.000000000000000E+000	0.167058	0.167058	0.0000000E+000	0.000000000000000E+000	0.00214283
1	1	0	1	0	0	9	2438.49	1.778	1.21297	1.7782	0.291682	0.70101	0	0.194725	11	0.000211054	0.000000000000000E+000	527734	0.000000000000000E+000	0.000000000000000E+000	0.194725	0.194725	0.0000000E+000	0.000000000000000E+000	0.0021569
1	1	0	0	0	0	10	2493.49	3.162	1.29194	3.16274	0.123324	0.852791	0	0.236886	11	0.000264795	0.000000000000000E+000	605970	0.000000000000000E+000	0.000000000000000E+000	0.236886	0.236886	0.0000000E+000	0.000000000000000E+000	0.00408608
1	1	0	0	0	0	10	2549.49	3.162	1.3039	3.16205	0.300405	1.02987	0	0.286076	11	0.000328642	0.000000000000000E+000	725632	0.000000000000000E+000	0.000000000000000E+000	0.286076	0.286076	0.0000000E+000	0.000000000000000E+000	0.004123
1	1	0	0	0	0	10	2605.49	3.162	1.31355	3.16281	0.477486	1.20695	0	0.335265	11	0.000392999	0.000000000000000E+000	844660	0.000000000000000E+000	0.000000000000000E+000	0.335265	0.335265	0.0000000E+000	0.000000000000000E+000	0.0041545
1	1	0	1	0	0	11	2660.49	5.623	1.42897	5.6229	0.1462	1.44486	0	0.401349	11	0.000484333	0.000000000000000E+000	935582	0.000000000000000E+000	0.000000000000000E+000	0.401349	0.401349	0.0000000E+000	0.000000000000000E+000	0.00803495
1	1	0	1	0	0	11	2716.49	5.623	1.46741	5.62322	0.461094	1.75975	0	0.48882	11	0.000611044	0.000000000000000E+000	1.11181e+06	0.000000000000000E+000	0.000000000000000E+000	0.48882	0.48882	0.0000000E+000	0.000000000000000E+000	0.00825156
1	1	0	1	0	0	11	2772.49	5.623	1.50424	5.62265	0.775988	2.07464	0	0.57629	11	0.000740939	0.000000000000000E+000	1.28095e+06	0.000000000000000E+000	0.000000000000000E+000	0.57629	0.57629	0.0000000E+000	0.000000000000000E+000	0.00845779
1	1	0	0	0	0	12	2827.49	10	1.70648	9.99948	0.130001	2.44082	0	0.678005	11	0.000901672	0.000000000000000E+000	1.33975e+06	0.000000000000000E+000	0.000000000000000E+000	0.678005	0.678005	0.0000000E+000	0.000000000000000E+000	0.0170639
1	1	0	0	0	0	12	2883.49	10	1.77876	10.0004	0.690009	3.00083	0	0.833563	11	0.00117433	0.000000000000000E+000	1.58427e+06	0.000000000000000E+000	0.000000000000000E+000	0.833563	0.833563	0.0000000E+000	0.000000000000000E+000	0.0177884
1	1	0	0	0	0	12	2939.49	10	1.80993	10.0003	1.25002	3.56083	0	0.989121	11	0.00145375	0.000000000000000E+000	1.84949e+06	0.000000000000000E+000	0.000000000000000E+000	0.989121	0.989121	0.0000000E+000	0.000000000000000E+000	0.0180999
1	1	0	0	0	0	12	2994.49	10	1.83202	10.0003	1.80003	4.11085	0	1.1419	11	0.00173175	0.000000000000000E+000	2.11095e+06	0.000000000000000E+000	0.000000000000000E+000	1.1419	1.1419	0.0000000E+000	0.000000000000000E+000	0.0183208

File: 2023_01_31 NiNx 1 mg 307ref set2_04_CA_C01.mpt
EC-Lab ASCII FILE
Nb header lines : 61

Chronoamperometry / Chronocoulometry

Run on channel : 1 (SN 21648)
User :
CE vs. WE compliance from -10 V to 10 V
Electrode connection : standard
Potential control : Ewe
Ewe ctrl range : min = -2.50 V, max = 2.50 V
Safety Limits :
	Do not start on E overload
Acquisition started on : 01/31/2023 10:44:48.640
Loaded Setting File :  C:\Users\grupogalan\Documents\EC-Lab\Data\Scott\_cyclic_pause_tafel.mps
Saved on :
	File : 2023_01_31 NiNx 1 mg 307ref set2_04_CA_C01.mpr
	Directory : C:\Users\grupogalan\Documents\EC-Lab\Data\Scott\
	Host : 169.254.104.159
Device : VSP (SN 1176)
Address : USB
EC-Lab for windows v11.46 (software)
Internet server v11.40 (firmware)
Command interpretor v11.40 (firmware)
Electrode material :
Initial state :
Electrolyte :
Comments :
Electrode surface area : 0.001 cm²
Characteristic mass : 0.001 g
Equivalent Weight : 0.000 g/eq.
Density : 0.000 g/cm3
Volume (V) : 0.001 cm³
Cycle Definition : Charge/Discharge alternance
Ei (V)              0.707
vs.                 Ref
ti (h:m:s)          0:00:10.0000
Imax                pass
unit Imax           mA
Imin                pass
unit Imin           mA
dQM                 0.000
unit dQM            mA.h
record              <I>
dI                  5.000
unit dI             µA
dQ                  0.000
unit dQ             mA.h
dt (s)              0.1000
dta (s)             0.1000
E range min (V)     -2.500
E range max (V)     2.500
I Range             Auto
I Range min         Unset
I Range max         Unset
I Range init        Unset
Bandwidth           5
goto Ns'            0
nc cycles           0

mode	ox/red	error	control changes	Ns changes	counter inc.	Ns	time/s	control/V	Ewe/V	<I>/mA	dQ/C	(Q-Qo)/C	I Range	Q charge/discharge/mA.h	half cycle	Energy charge/W.h	Energy discharge/W.h	Capacitance charge/µF	Capacitance discharge/µF	Q discharge/mA.h	Q charge/mA.h	Capacity/mA.h	Efficiency/%	cycle number	P/W
2	1	0	1	0	0	0	2994.66	0.707013	0.706526	0.132958	1.84541e-05	1.84541e-05	11	5.12615e-06	0	3.62175e-09	0.000000000000000E+000	0.000000000000000E+000	0.000000000000000E+000	0.000000000000000E+000	5.12615e-06	5.12615e-06	0.0000000E+000	0.000000000000000E+000	9.39384e-05
2	1	0	1	0	0	0	2994.99	0.707013	0.70708	0.148615	6.73841e-05	6.73841e-05	12	1.87178e-05	0	1.32315e-08	0.000000000000000E+000	121692	0.000000000000000E+000	0.000000000000000E+000	1.87178e-05	1.87178e-05	0.0000000E+000	0.000000000000000E+000	0.000105083
2	1	0	1	0	0	0	2995.29	0.707013	0.707137	0.147287	0.000111707	0.000111707	12	3.10296e-05	0	2.194e-08	0.000000000000000E+000	182824	0.000000000000000E+000	0.000000000000000E+000	3.10296e-05	3.10296e-05	0.0000000E+000	0.000000000000000E+000	0.000104152
2	1	0	1	0	0	0	2995.59	0.707013	0.707786	0.144932	0.000155427	0.000155427	12	4.31741e-05	0	3.05299e-08	0.000000000000000E+000	123339	0.000000000000000E+000	0.000000000000000E+000	4.31741e-05	4.31741e-05	0.0000000E+000	0.000000000000000E+000	0.000102581
2	1	0	1	0	0	0	2995.89	0.707013	0.707748	0.14323	0.000198604	0.000198604	12	5.51677e-05	0	3.90148e-08	0.000000000000000E+000	162529	0.000000000000000E+000	0.000000000000000E+000	5.51677e-05	5.51677e-05	0.0000000E+000	0.000000000000000E+000	0.000101371
2	1	0	1	0	0	0	2996.19	0.707013	0.706812	0.141492	0.00024118	0.00024118	12	6.69944e-05	0	4.7374e-08	0.000000000000000E+000	842107	0.000000000000000E+000	0.000000000000000E+000	6.69944e-05	6.69944e-05	0.0000000E+000	0.000000000000000E+000	0.000100008
2	1	0	1	0	0	0	2996.49	0.707013	0.706793	0.139672	0.000283276	0.000283276	12	7.86878e-05	0	5.56429e-08	0.000000000000000E+000	1.05966e+06	0.000000000000000E+000	0.000000000000000E+000	7.86878e-05	7.86878e-05	0.0000000E+000	0.000000000000000E+000	9.87192e-05
2	1	0	1	0	0	0	2996.79	0.707013	0.706965	0.138577	0.000324956	0.000324956	12	9.02656e-05	0	6.38309e-08	0.000000000000000E+000	739937	0.000000000000000E+000	0.000000000000000E+000	9.02656e-05	9.02656e-05	0.0000000E+000	0.000000000000000E+000	9.79692e-05
2	1	0	1	0	0	0	2997.09	0.707013	0.706908	0.137192	0.000366207	0.000366207	12	0.000101724	0	7.1931e-08	0.000000000000000E+000	958940	0.000000000000000E+000	0.000000000000000E+000	0.000101724	0.000101724	0.0000000E+000	0.000000000000000E+000	9.69822e-05
2	1	0	1	0	0	0	2997.39	0.707013	0.706717	0.135811	0.000407102	0.000407102	12	0.000113084	0	7.99638e-08	0.000000000000000E+000	2.13172e+06	0.000000000000000E+000	0.000000000000000E+000	0.000113084	0.000113084	0.0000000E+000	0.000000000000000E+000	9.59801e-05
2	1	0	1	0	0	0	2997.69	0.707013	0.706927	0.135004	0.000447707	0.000447707	12	0.000124363	0	8.79416e-08	0.000000000000000E+000	1.11659e+06	0.000000000000000E+000	0.000000000000000E+000	0.000124363	0.000124363	0.0000000E+000	0.000000000000000E+000	9.54377e-05
2	1	0	1	0	0	0	2997.99	0.707013	0.706984	0.134145	0.000487992	0.000487992	12	0.000135553	0	9.5856e-08	0.000000000000000E+000	1.06493e+06	0.000000000000000E+000	0.000000000000000E+000	0.000135553	0.000135553	0.0000000E+000	0.000000000000000E+000	9.48385e-05
2	1	0	1	0	0	0	2998.29	0.707013	0.707061	0.132995	0.00052799	0.00052799	12	0.000146664	0	1.03716e-07	0.000000000000000E+000	987537	0.000000000000000E+000	0.000000000000000E+000	0.000146664	0.000146664	0.0000000E+000	0.000000000000000E+000	9.40355e-05
2	1	0	1	0	0	0	2998.59	0.707013	0.707404	0.132253	0.000567782	0.000567782	12	0.000157717	0	1.11534e-07	0.000000000000000E+000	646474	0.000000000000000E+000	0.000000000000000E+000	0.000157717	0.000157717	0.0000000E+000	0.000000000000000E+000	9.35567e-05
2	1	0	1	0	0	0	2998.89	0.707013	0.706774	0.131605	0.000607307	0.000607307	12	0.000168696	0	1.19297e-07	0.000000000000000E+000	2.44632e+06	0.000000000000000E+000	0.000000000000000E+000	0.000168696	0.000168696	0.0000000E+000	0.000000000000000E+000	9.30148e-05
2	1	0	1	0	0	0	2999.19	0.707013	0.707595	0.130739	0.000646625	0.000646625	12	0.000179618	0	1.27024e-07	0.000000000000000E+000	604748	0.000000000000000E+000	0.000000000000000E+000	0.000179618	0.000179618	0.0000000E+000	0.000000000000000E+000	9.25103e-05
2	1	0	1	0	0	0	2999.49	0.707013	0.707538	0.130141	0.000685748	0.000685748	12	0.000190486	0	1.3471e-07	0.000000000000000E+000	677638	0.000000000000000E+000	0.000000000000000E+000	0.000190486	0.000190486	0.0000000E+000	0.000000000000000E+000	9.20793e-05
2	1	0	1	0	0	0	2999.79	0.707013	0.707748	0.129575	0.00072464	0.00072464	12	0.000201289	0	1.4235e-07	0.000000000000000E+000	593017	0.000000000000000E+000	0.000000000000000E+000	0.000201289	0.000201289	0.0000000E+000	0.000000000000000E+000	9.17065e-05
2	1	0	1	0	0	0	3000.09	0.707013	0.70708	0.128928	0.000763401	0.000763401	12	0.000212056	0	1.49962e-07	0.000000000000000E+000	1.37866e+06	0.000000000000000E+000	0.000000000000000E+000	0.000212056	0.000212056	0.0000000E+000	0.000000000000000E+000	9.11622e-05
2	1	0	1	0	0	0	3000.39	0.707013	0.707252	0.128531	0.000802001	0.000802001	12	0.000222778	0	1.57548e-07	0.000000000000000E+000	1.10534e+06	0.000000000000000E+000	0.000000000000000E+000	0.000222778	0.000222778	0.0000000E+000	0.000000000000000E+000	9.09041e-05
2	1	0	1	0	0	0	3000.69	0.707013	0.707156	0.127914	0.000840409	0.000840409	12	0.000233447	0	1.65091e-07	0.000000000000000E+000	1.33381e+06	0.000000000000000E+000	0.000000000000000E+000	0.000233447	0.000233447	0.0000000E+000	0.000000000000000E+000	9.04554e-05
2	1	0	1	0	0	0	3000.99	0.707013	0.707462	0.127202	0.000878663	0.000878663	12	0.000244073	0	1.72609e-07	0.000000000000000E+000	939189	0.000000000000000E+000	0.000000000000000E+000	0.000244073	0.000244073	0.0000000E+000	0.000000000000000E+000	8.99907e-05
2	1	0	1	0	0	0	3001.29	0.707013	0.707041	0.127002	0.000916793	0.000916793	12	0.000254665	0	1.80097e-07	0.000000000000000E+000	1.77838e+06	0.000000000000000E+000	0.000000000000000E+000	0.000254665	0.000254665	0.0000000E+000	0.000000000000000E+000	8.97954e-05
2	1	0	1	0	0	0	3001.59	0.707013	0.707805	0.12648	0.000954756	0.000954756	12	0.00026521	0	1.87556e-07	0.000000000000000E+000	746350	0.000000000000000E+000	0.000000000000000E+000	0.00026521	0.00026521	0.0000000E+000	0.000000000000000E+000	8.95232e-05
2	1	0	1	0	0	0	3001.89	0.707013	0.707194	0.125844	0.000992586	0.000992586	12	0.000275718	0	1.94987e-07	0.000000000000000E+000	1.48527e+06	0.000000000000000E+000	0.000000000000000E+000	0.000275718	0.000275718	0.0000000E+000	0.000000000000000E+000	8.89959e-05
2	1	0	1	0	0	0	3002.19	0.707013	0.707366	0.125776	0.00103032	0.00103032	12	0.000286199	0	2.02399e-07	0.000000000000000E+000	1.22638e+06	0.000000000000000E+000	0.000000000000000E+000	0.000286199	0.000286199	0.0000000E+000	0.000000000000000E+000	8.89698e-05
2	1	0	1	0	0	0	3002.49	0.707013	0.70708	0.12524	0.0010679	0.0010679	12	0.000296639	0	2.09782e-07	0.000000000000000E+000	1.92857e+06	0.000000000000000E+000	0.000000000000000E+000	0.000296639	0.000296639	0.0000000E+000	0.000000000000000E+000	8.85549e-05
2	1	0	1	0	0	0	3002.79	0.707013	0.706774	0.124748	0.0011054	0.0011054	12	0.000307057	0	2.17147e-07	0.000000000000000E+000	4.45273e+06	0.000000000000000E+000	0.000000000000000E+000	0.000307057	0.000307057	0.0000000E+000	0.000000000000000E+000	8.81689e-05
2	1	0	1	0	0	0	3003.09	0.707013	0.707653	0.124619	0.00114279	0.00114279	12	0.000317442	0	2.24497e-07	0.000000000000000E+000	1.01444e+06	0.000000000000000E+000	0.000000000000000E+000	0.000317442	0.000317442	0.0000000E+000	0.000000000000000E+000	8.81868e-05
2	1	0	1	0	0	0	3003.39	0.707013	0.707194	0.124055	0.00118007	0.00118007	12	0.000327796	0	2.31817e-07	0.000000000000000E+000	1.76581e+06	0.000000000000000E+000	0.000000000000000E+000	0.000327796	0.000327796	0.0000000E+000	0.000000000000000E+000	8.77311e-05
2	1	0	1	0	0	0	3003.69	0.707013	0.707576	0.123813	0.00121726	0.00121726	12	0.000338129	0	2.39124e-07	0.000000000000000E+000	1.15917e+06	0.000000000000000E+000	0.000000000000000E+000	0.000338129	0.000338129	0.0000000E+000	0.000000000000000E+000	8.76071e-05
2	1	0	1	0	0	0	3003.99	0.707013	0.706373	0.123549	0.00125433	0.00125433	12	0.000348424	0	2.46404e-07	0.000000000000000E+000	8.21394e+06	0.000000000000000E+000	0.000000000000000E+000	0.000348424	0.000348424	0.0000000E+000	0.000000000000000E+000	8.72716e-05
2	1	0	1	0	0	0	3004.29	0.707013	0.706889	0.122943	0.00129129	0.00129129	12	0.000358693	0	2.53665e-07	0.000000000000000E+000	3.55911e+06	0.000000000000000E+000	0.000000000000000E+000	0.000358693	0.000358693	0.0000000E+000	0.000000000000000E+000	8.69072e-05
2	1	0	1	0	0	0	3004.49	0.707013	0.707442	0.122695	0.00131702	0.00131702	12	0.000365838	0	2.5872e-07	0.000000000000000E+000	1.43704e+06	0.000000000000000E+000	0.000000000000000E+000	0.000365838	0.000365838	0.0000000E+000	0.000000000000000E+000	8.67994e-05