Folder: EC-Lab-Processing/Data_1mg (part 3)

File: 2022_01_26 IrOx 1mg  ref309 elect1 set1_03_CP_C02.mpt
EC-Lab ASCII FILE
Nb header lines : 53

Chronopotentiometry

Run on channel : 2 (SN 12477)
User :
CE vs. WE compliance from -10 V to 10 V
Electrode connection : standard
Potential control : Ewe
Ewe ctrl range : min = -2.50 V, max = 2.50 V
Safety Limits :
	Do not start on E overload
Acquisition started on : 01/26/2023 11:20:17.212
Loaded Setting File :  C:\Users\grupogalan\Documents\EC-Lab\Data\Scott\_cyclic_pause_tafel.mps
Saved on :
	File : 2022_01_26 IrOx 1mg  ref309 elect1 set1_03_CP_C02.mpr
	Directory : C:\Users\grupogalan\Documents\EC-Lab\Data\Scott\
	Host : 169.254.104.159
Device : VSP (SN 1176)
Address : USB
EC-Lab for windows v11.46 (software)
Internet server v11.40 (firmware)
Command interpretor v11.40 (firmware)
Electrode material :
Initial state :
Electrolyte :
Comments :
Electrode surface area : 0.000 cm²
Characteristic mass : 0.001 g
Equivalent Weight : 0.000 g/eq.
Density : 0.000 g/cm3
Volume (V) : 0.001 cm³
Cycle Definition : Charge/Discharge alternance
Ns                  0                   1                   2                   3                   4                   5                   6                   7                   8                   9                   10                  11                  12
Is                  10.000              18.000              32.000              56.000              100.000             178.000             316.000             562.000             1.000               1.778               3.162               5.623               10.000
unit Is             µA                  µA                  µA                  µA                  µA                  µA                  µA                  µA                  mA                  mA                  mA                  mA                  mA
vs.                 <None>              <None>              <None>              <None>              <None>              <None>              <None>              <None>              <None>              <None>              <None>              <None>              <None>
ts (h:m:s)          0:03:0.0000         0:03:0.0000         0:03:0.0000         0:03:0.0000         0:03:0.0000         0:03:0.0000         0:03:0.0000         0:03:0.0000         0:03:0.0000         0:03:0.0000         0:03:0.0000         0:03:0.0000         0:03:0.0000
EM (V)              pass                pass                pass                pass                pass                pass                pass                pass                pass                pass                pass                pass                pass
dQM                 500.000             900.000             1.600               2.800               5.000               8.900               15.800              28.100              50.000              88.900              158.100             281.150             500.000
unit dQM            nA.h                nA.h                µA.h                µA.h                µA.h                µA.h                µA.h                µA.h                µA.h                µA.h                µA.h                µA.h                µA.h
record              <Ewe>               <Ewe>               <Ewe>               <Ewe>               <Ewe>               <Ewe>               <Ewe>               <Ewe>               <Ewe>               <Ewe>               <Ewe>               <Ewe>               <Ewe>
dEs (mV)            0.00                0.00                0.00                0.00                0.00                0.00                0.00                0.00                0.00                0.00                0.00                0.00                0.00
dts (s)             1.0000              1.0000              1.0000              1.0000              1.0000              1.0000              1.0000              1.0000              1.0000              1.0000              1.0000              1.0000              1.0000
E range min (V)     -2.500              -2.500              -2.500              -2.500              -2.500              -2.500              -2.500              -2.500              -2.500              -2.500              -2.500              -2.500              -2.500
E range max (V)     2.500               2.500               2.500               2.500               2.500               2.500               2.500               2.500               2.500               2.500               2.500               2.500               2.500
I Range             10 mA               10 mA               10 mA               10 mA               10 mA               10 mA               10 mA               10 mA               10 mA               10 mA               10 mA               10 mA               10 mA
Bandwidth           5                   5                   5                   5                   5                   5                   5                   5                   5                   5                   5                   5                   5
goto Ns'            0                   0                   0                   0                   0                   0                   0                   0                   0                   0                   0                   0                   0
nc cycles           0                   0                   0                   0                   0                   0                   0                   0                   0                   0                   0                   0                   0

mode	ox/red	error	control changes	Ns changes	counter inc.	Ns	time/s	control/mA	<Ewe>/V	I/mA	dQ/C	(Q-Qo)/C	half cycle	Q charge/discharge/mA.h	I Range	Energy charge/W.h	Energy discharge/W.h	Capacitance charge/µF	Capacitance discharge/µF	Q discharge/mA.h	Q charge/mA.h	Capacity/mA.h	Efficiency/%	cycle number	P/W
1	1	0	0	0	0	0	650.74	0.01	0.0158662	0.0119621	1.10645e-05	1.10645e-05	0	3.07348e-06	11	4.87646e-11	0.000000000000000E+000	0.000000000000000E+000	0.000000000000000E+000	0.000000000000000E+000	3.07348e-06	3.07348e-06	0.0000000E+000	0.000000000000000E+000	1.89793e-07
1	1	0	0	0	0	0	686.74	0.01	0.0528791	0.0113894	0.000429753	0.000429753	0	0.000119376	11	4.26472e-09	0.000000000000000E+000	11610.9	0.000000000000000E+000	0.000000000000000E+000	0.000119376	0.000119376	0.0000000E+000	0.000000000000000E+000	6.02263e-07
1	1	0	0	0	0	0	722.74	0.01	0.08053	0.0117712	0.000847777	0.000847777	0	0.000235494	11	1.20919e-08	0.000000000000000E+000	13110.6	0.000000000000000E+000	0.000000000000000E+000	0.000235494	0.000235494	0.0000000E+000	0.000000000000000E+000	9.47933e-07
1	1	0	0	0	0	0	758.74	0.01	0.104799	0.0121529	0.00126575	0.00126575	0	0.000351598	11	2.29231e-08	0.000000000000000E+000	14232.8	0.000000000000000E+000	0.000000000000000E+000	0.000351598	0.000351598	0.0000000E+000	0.000000000000000E+000	1.27361e-06
1	1	0	0	0	0	0	794.74	0.01	0.125922	0.0120257	0.00168328	0.00168328	0	0.000467577	11	3.63716e-08	0.000000000000000E+000	15294.8	0.000000000000000E+000	0.000000000000000E+000	0.000467577	0.000467577	0.0000000E+000	0.000000000000000E+000	1.51429e-06
1	1	0	0	0	0	0	829.792	0.01	0.143905	0.0115803	0.00208961	0.00208961	0	0.000580447	11	5.16727e-08	0.000000000000000E+000	16320.1	0.000000000000000E+000	0.000000000000000E+000	0.000580447	0.000580447	0.0000000E+000	0.000000000000000E+000	1.66647e-06
[...]
1	1	0	1	0	0	5	1653.79	0.178	0.568762	0.178851	0.0186416	0.0587235	0	0.0163121	11	7.22198e-06	0.000000000000000E+000	106211	0.000000000000000E+000	0.000000000000000E+000	0.0163121	0.0163121	0.0000000E+000	0.000000000000000E+000	0.000101724
1	1	0	1	0	0	5	1689.79	0.178	0.568978	0.179551	0.0250943	0.0651763	0	0.0181045	11	8.24171e-06	0.000000000000000E+000	117836	0.000000000000000E+000	0.000000000000000E+000	0.0181045	0.0181045	0.0000000E+000	0.000000000000000E+000	0.00010216
1	1	0	1	0	0	5	1725.79	0.178	0.569253	0.179614	0.0315465	0.0716285	0	0.0198968	11	9.26165e-06	0.000000000000000E+000	129436	0.000000000000000E+000	0.000000000000000E+000	0.0198968	0.0198968	0.0000000E+000	0.000000000000000E+000	0.000102246
1	1	0	0	0	0	6	1760.79	0.316	0.586277	0.317935	0.00983834	0.0821838	0	0.0228288	11	1.09748e-05	0.000000000000000E+000	144078	0.000000000000000E+000	0.000000000000000E+000	0.0228288	0.0228288	0.0000000E+000	0.000000000000000E+000	0.000186398
1	1	0	0	0	0	6	1796.79	0.316	0.586693	0.317999	0.0212638	0.0936093	0	0.0260026	11	1.28364e-05	0.000000000000000E+000	163989	0.000000000000000E+000	0.000000000000000E+000	0.0260026	0.0260026	0.0000000E+000	0.000000000000000E+000	0.000186568
1	1	0	0	0	0	6	1832.79	0.316	0.586892	0.31749	0.0326889	0.105034	0	0.0291762	11	1.46987e-05	0.000000000000000E+000	183940	0.000000000000000E+000	0.000000000000000E+000	0.0291762	0.0291762	0.0000000E+000	0.000000000000000E+000	0.000186332
1	1	0	0	0	0	6	1868.79	0.316	0.587074	0.317999	0.0441141	0.11646	0	0.0323499	11	1.65618e-05	0.000000000000000E+000	203883	0.000000000000000E+000	0.000000000000000E+000	0.0323499	0.0323499	0.0000000E+000	0.000000000000000E+000	0.000186689
1	1	0	0	0	0	6	1904.79	0.316	0.587189	0.317045	0.0555402	0.127886	0	0.0355238	11	1.84252e-05	0.000000000000000E+000	223841	0.000000000000000E+000	0.000000000000000E+000	0.0355238	0.0355238	0.0000000E+000	0.000000000000000E+000	0.000186165
1	1	0	1	0	0	7	1939.79	0.562	0.602043	0.564992	0.0169056	0.146378	0	0.0406606	11	2.15089e-05	0.000000000000000E+000	249717	0.000000000000000E+000	0.000000000000000E+000	0.0406606	0.0406606	0.0000000E+000	0.000000000000000E+000	0.00034015
1	1	0	1	0	0	7	1975.79	0.562	0.602295	0.56391	0.0371929	0.166666	0	0.046296	11	2.49023e-05	0.000000000000000E+000	284204	0.000000000000000E+000	0.000000000000000E+000	0.046296	0.046296	0.0000000E+000	0.000000000000000E+000	0.000339641
1	1	0	1	0	0	7	2011.79	0.562	0.60257	0.56321	0.0574794	0.186952	0	0.0519311	11	2.82971e-05	0.000000000000000E+000	318648	0.000000000000000E+000	0.000000000000000E+000	0.0519311	0.0519311	0.0000000E+000	0.000000000000000E+000	0.000339374
1	1	0	1	0	0	7	2047.79	0.562	0.602764	0.56302	0.0777658	0.207238	0	0.0575662	11	3.16929e-05	0.000000000000000E+000	353108	0.000000000000000E+000	0.000000000000000E+000	0.0575662	0.0575662	0.0000000E+000	0.000000000000000E+000	0.000339368
1	1	0	1	0	0	7	2083.79	0.562	0.602682	0.563338	0.0980524	0.227525	0	0.0632014	11	3.5089e-05	0.000000000000000E+000	387728	0.000000000000000E+000	0.000000000000000E+000	0.0632014	0.0632014	0.0000000E+000	0.000000000000000E+000	0.000339514
1	1	0	0	0	0	8	2118.79	1	0.617626	1.0007	0.029038	0.259944	0	0.0722067	11	4.06337e-05	0.000000000000000E+000	431974	0.000000000000000E+000	0.000000000000000E+000	0.0722067	0.0722067	0.0000000E+000	0.000000000000000E+000	0.000618056
1	1	0	0	0	0	8	2121.79	1	0.617607	1.00222	0.032042	0.262948	0	0.0730412	11	4.1149e-05	0.000000000000000E+000	436979	0.000000000000000E+000	0.000000000000000E+000	0.0730412	0.0730412	0.0000000E+000	0.000000000000000E+000	0.000618981

File: 2022_01_26 IrOx 1mg  ref309 elect1_C05.mpt
EC-Lab ASCII FILE
Nb header lines : 63

Potentio Electrochemical Impedance Spectroscopy

Run on channel : 5 (SN 30436)
User :
CE vs. WE compliance from -10 V to 10 V
Electrode connection : standard
Potential control : Ewe
Ewe ctrl range : min = -10.00 V, max = 10.00 V
Safety Limits :
	Do not start on E overload
Acquisition started on : 01/26/2023 11:17:27.002
Loaded Setting File :  NONE
Saved on :
	File : 2022_01_26 IrOx 1mg  ref309 elect1_C05.mpr
	Directory : C:\Users\grupogalan\Documents\EC-Lab\Data\Scott\
	Host : 169.254.104.159
Device : VSP (SN 1176)
Address : USB
EC-Lab for windows v11.46 (software)
Internet server v11.40 (firmware)
Command interpretor v11.40 (firmware)
Electrode material :
Initial state :
Electrolyte :
Comments :
Electrode surface area : 0.001 cm²
Characteristic mass : 0.001 g
Equivalent Weight : 0.000 g/eq.
Density : 0.000 g/cm3
Volume (V) : 0.001 cm³
Cycle Definition : Charge/Discharge alternance
Mode                Single sine
E (V)               0.0000
vs.                 Eoc
tE (h:m:s)          0:00:0.0000
record              0
dI                  0.000
unit dI             mA
dt (s)              0.000
fi                  200.000
unit fi             kHz
ff                  100.000
unit ff             mHz
Nd                  6
Points              per decade
spacing             Logarithmic
Va (mV)             10.0
pw                  0.10
Na                  2
corr                0
E range min (V)     -10.000
E range max (V)     10.000
I Range             Auto
Bandwidth           5
nc cycles           0
goto Ns'            0
nr cycles           0
inc. cycle          0

freq/Hz	Re(Z)/Ohm	-Im(Z)/Ohm	|Z|/Ohm	Phase(Z)/deg	time/s	<Ewe>/V	<I>/mA	Cs/µF	Cp/µF	cycle number	I Range	|Ewe|/V	|I|/A	Ns	(Q-Qo)/mA.h	Re(Y)/Ohm-1	Im(Y)/Ohm-1	|Y|/Ohm-1	Phase(Y)/deg	Re(C)/nF	Im(C)/nF	|C|/nF	Phase(C)/deg	Re(M)	Im(M)	|M|	Phase(M)/deg	Re(Permittivity)	Im(Permittivity)	|Permittivity|	Phase(Permittivity)/deg	Re(Resistivity)/Ohm.cm	Im(Resistivity)/Ohm.cm	|Resistivity|/Ohm.cm	Phase(Resistivity)/deg	Re(Conductivity)/mS/cm	Im(Conductivity)/mS/cm	|Conductivity|/mS/cm	Phase(Conductivity)/deg	Tan(Delta)	Loss Angle(Delta)/deg	dq/mA.h
199998	1.24253	-1.36251	1.844	47.6369	2.06848	-0.0649825	-0.13686	-0.584057	-0.31887	1	9	0.00640029	0.00347088	0	-2.10729e-05	0.365417	-0.4007	0.542301	-47.6369	-318.87	290.792	431.553	-137.637	0.0000000E+000	0.0000000E+000	0.0000000E+000	137.637	0.0000000E+000	0.0000000E+000	0.0000000E+000	-137.637	0.0000000E+000	0.0000000E+000	0.0000000E+000	47.6369	0.0000000E+000	0.0000000E+000	0.0000000E+000	-47.6369	-0.911947	-47.6369	-2.10729e-05
91291.2	0.809675	-0.252917	0.848257	17.3471	2.9125	-0.0648198	-0.149383	-6.89309	-0.612793	1	9	0.0101989	0.0120233	0	-6.61685e-05	1.12527	-0.351498	1.17889	-17.3471	-612.792	1961.76	2055.25	-107.347	0.0000000E+000	0.0000000E+000	0.0000000E+000	107.347	0.0000000E+000	0.0000000E+000	0.0000000E+000	-107.347	0.0000000E+000	0.0000000E+000	0.0000000E+000	17.3471	0.0000000E+000	0.0000000E+000	0.0000000E+000	-17.3471	-3.20135	-17.3471	-4.19526e-05
41669.8	0.786727	-0.0291872	0.787269	2.12467	3.89348	-0.0647352	-0.138053	-130.86	-0.179865	1	9	0.00924001	0.0117368	0	-0.00016214	1.26934	-0.047092	1.27021	-2.12467	-179.865	4848.17	4851.5	-92.1247	0.0000000E+000	0.0000000E+000	0.0000000E+000	92.1247	0.0000000E+000	0.0000000E+000	0.0000000E+000	-92.1247	0.0000000E+000	0.0000000E+000	0.0000000E+000	2.12467	0.0000000E+000	0.0000000E+000	0.0000000E+000	-2.12467	-26.9545	-2.12467	-5.41992e-05
19020.9	0.843838	0.0783864	0.847471	-5.30713	4.87448	-0.0649109	-0.138165	106.745	0.913229	1	9	0.0102047	0.0120413	0	-0.000200214	1.17492	0.109142	1.17998	5.30713	913.228	9831	9873.33	-84.6929	0.0000000E+000	0.0000000E+000	0.0000000E+000	84.6929	0.0000000E+000	0.0000000E+000	0.0000000E+000	-84.6929	0.0000000E+000	0.0000000E+000	0.0000000E+000	-5.30713	0.0000000E+000	0.0000000E+000	0.0000000E+000	5.30713	10.7651	5.30713	-4.13797e-05
8683.37	0.915554	0.162329	0.929833	-10.0541	5.60098	-0.0648682	-0.154936	112.911	3.44126	1	9	0.0109813	0.01181	0	-0.000218238	1.05895	0.187753	1.07546	10.0541	3441.26	19409.1	19711.8	-79.9459	0.0000000E+000	0.0000000E+000	0.0000000E+000	79.9459	0.0000000E+000	0.0000000E+000	0.0000000E+000	-79.9459	0.0000000E+000	0.0000000E+000	0.0000000E+000	-10.0541	0.0000000E+000	0.0000000E+000	0.0000000E+000	10.0541	5.64011	10.0541	-2.18088e-05
3961.2	1.00893	0.237341	1.03647	-13.2376	6.48097	-0.0647183	-0.15434	169.286	8.8767	1	9	0.0105727	0.0102007	0	-0.000265585	0.939175	0.220932	0.964811	13.2376	8876.7	37734.6	38764.7	-76.7624	0.0000000E+000	0.0000000E+000	0.0000000E+000	76.7624	0.0000000E+000	0.0000000E+000	0.0000000E+000	-76.7624	0.0000000E+000	0.0000000E+000	0.0000000E+000	-13.2376	0.0000000E+000	0.0000000E+000	0.0000000E+000	13.2376	4.25098	13.2376	-1.93802e-05
1808.26	1.15729	0.271038	1.18861	-13.1811	7.40493	-0.0647956	-0.161067	324.734	16.8855	1	9	0.0103854	0.00873744	0	-0.000299195	0.819156	0.191847	0.841321	13.1811	16885.5	72098.3	74049.2	-76.8189	0.0000000E+000	0.0000000E+000	0.0000000E+000	76.8189	0.0000000E+000	0.0000000E+000	0.0000000E+000	-76.8189	0.0000000E+000	0.0000000E+000	0.0000000E+000	-13.1811	0.0000000E+000	0.0000000E+000	0.0000000E+000	13.1811	4.26984	13.1811	-1.83558e-05
825.264	1.2916	0.258761	1.31726	-11.3288	8.32771	-0.064605	-0.156949	745.295	28.7596	1	9	0.010186	0.00773267	0	-0.000347217	0.74436	0.149127	0.759151	11.3288	28759.6	143552	146405	-78.6712	0.0000000E+000	0.0000000E+000	0.0000000E+000	78.6712	0.0000000E+000	0.0000000E+000	0.0000000E+000	-78.6712	0.0000000E+000	0.0000000E+000	0.0000000E+000	-11.3288	0.0000000E+000	0.0000000E+000	0.0000000E+000	11.3288	4.99146	11.3288	-2.23971e-05
377.051	1.43414	0.303383	1.46588	-11.9445	9.25068	-0.0644689	-0.147519	1391.32	59.5959	1	9	0.0103357	0.00705086	0	-0.000381433	0.667415	0.141188	0.682185	11.9445	59595.9	281719	287953	-78.0555	0.0000000E+000	0.0000000E+000	0.0000000E+000	78.0555	0.0000000E+000	0.0000000E+000	0.0000000E+000	-78.0555	0.0000000E+000	0.0000000E+000	0.0000000E+000	-11.9445	0.0000000E+000	0.0000000E+000	0.0000000E+000	11.9445	4.72715	11.9445	-2.02382e-05
172.037	1.53172	0.332733	1.56744	-12.2558	10.1694	-0.0647784	-0.165446	2780.37	125.288	1	9	0.0102169	0.00651819	0	-0.000421501	0.623442	0.135429	0.637981	12.2558	125288	576759	590210	-77.7442	0.0000000E+000	0.0000000E+000	0.0000000E+000	77.7442	0.0000000E+000	0.0000000E+000	0.0000000E+000	-77.7442	0.0000000E+000	0.0000000E+000	0.0000000E+000	-12.2558	0.0000000E+000	0.0000000E+000	0.0000000E+000	12.2558	4.60346	12.2558	-1.35055e-05
78.5176	1.66413	0.430848	1.719	-14.5153	11.0965	-0.064734	-0.152122	4704.67	295.548	1	9	0.0103232	0.00600536	0	-0.00046378	0.563166	0.145806	0.581735	14.5153	295548	1.14154e+06	1.17918e+06	-75.4847	0.0000000E+000	0.0000000E+000	0.0000000E+000	75.4847	0.0000000E+000	0.0000000E+000	0.0000000E+000	-75.4847	0.0000000E+000	0.0000000E+000	0.0000000E+000	-14.5153	0.0000000E+000	0.0000000E+000	0.0000000E+000	14.5153	3.86245	14.5153	-1.94881e-05
35.8372	1.77915	0.633099	1.88844	-19.5877	12.2721	-0.0647606	-0.0216034	7014.79	788.41	1	10	0.0101862	0.00539396	0	-0.0005051	0.498893	0.177527	0.529538	19.5877	788410	2.21561e+06	2.35171e+06	-70.4123	0.0000000E+000	0.0000000E+000	0.0000000E+000	70.4123	0.0000000E+000	0.0000000E+000	0.0000000E+000	-70.4123	0.0000000E+000	0.0000000E+000	0.0000000E+000	-19.5877	0.0000000E+000	0.0000000E+000	0.0000000E+000	19.5877	2.81023	19.5877	-1.70125e-05
16.367	1.94861	1.10325	2.23925	-29.5173	13.174	-0.0649614	-0.0193684	8814.12	2139.54	1	10	0.0103186	0.00460804	0	-0.000491483	0.388616	0.220023	0.446578	29.5173	2.13954e+06	3.77896e+06	4.3426e+06	-60.4827	0.0000000E+000	0.0000000E+000	0.0000000E+000	60.4827	0.0000000E+000	0.0000000E+000	0.0000000E+000	-60.4827	0.0000000E+000	0.0000000E+000	0.0000000E+000	-29.5173	0.0000000E+000	0.0000000E+000	0.0000000E+000	29.5173	1.76625	29.5173	1.64067e-06
7.46893	2.14957	2.08012	2.99124	-44.0593	13.9246	-0.064972	-0.0295314	10244.1	4953.89	1	10	0.0103766	0.00346898	0	-0.000507593	0.240241	0.23248	0.334309	44.0593	4.95389e+06	5.11928e+06	7.12377e+06	-45.9407	0.0000000E+000	0.0000000E+000	0.0000000E+000	45.9407	0.0000000E+000	0.0000000E+000	0.0000000E+000	-45.9407	0.0000000E+000	0.0000000E+000	0.0000000E+000	-44.0593	0.0000000E+000	0.0000000E+000	0.0000000E+000	44.0593	1.03339	44.0593	2.17579e-07
3.4086	2.39614	4.08416	4.73518	-59.6003	15.0432	-0.0646235	-0.0225318	11432.5	8505.03	1	10	0.0102801	0.002171	0	-0.000504032	0.106866	0.182151	0.211185	59.6003	8.50503e+06	4.98982e+06	9.86072e+06	-30.3997	0.0000000E+000	0.0000000E+000	0.0000000E+000	30.3997	0.0000000E+000	0.0000000E+000	0.0000000E+000	-30.3997	0.0000000E+000	0.0000000E+000	0.0000000E+000	-59.6003	0.0000000E+000	0.0000000E+000	0.0000000E+000	59.6003	0.58669	59.6003	2.97215e-05
1.55627	2.93621	8.28331	8.78832	-70.482	17.8595	-0.0648083	-0.00513667	12346.1	10968	1	11	0.0102666	0.00116821	0	-0.000532592	0.0380168	0.107249	0.113787	70.482	1.0968e+07	3.88785e+06	1.16366e+07	-19.518	0.0000000E+000	0.0000000E+000	0.0000000E+000	19.518	0.0000000E+000	0.0000000E+000	0.0000000E+000	-19.518	0.0000000E+000	0.0000000E+000	0.0000000E+000	-70.482	0.0000000E+000	0.0000000E+000	0.0000000E+000	70.482	0.354473	70.482	-3.32138e-05
0.710357	4.0145	17.0911	17.5563	-76.7815	22.8804	-0.0647007	-0.00360599	13109.1	12423.7	1	11	0.0102447	0.000583535	0	-0.000554225	0.0130247	0.0554506	0.0569597	76.7815	1.24237e+07	2.91817e+06	1.27618e+07	-13.2185	0.0000000E+000	0.0000000E+000	0.0000000E+000	13.2185	0.0000000E+000	0.0000000E+000	0.0000000E+000	-13.2185	0.0000000E+000	0.0000000E+000	0.0000000E+000	-76.7815	0.0000000E+000	0.0000000E+000	0.0000000E+000	76.7815	0.234888	76.7815	8.22479e-07