Folder: EC-Lab-Processing/Data_1mg (part 11)

File: 2023_01_31_Co25Ni25Fe50 elect1 ref307__01_CV_C04.mpt
EC-Lab ASCII FILE
Nb header lines : 57

Cyclic Voltammetry

Run on channel : 4 (SN 12476)
User :
CE vs. WE compliance from -10 V to 10 V
Electrode connection : standard
Potential control : Ewe
Ewe ctrl range : min = -2.50 V, max = 2.50 V
Safety Limits :
	Do not start on E overload
Acquisition started on : 01/31/2023 15:15:50.955
Loaded Setting File :  C:\Users\grupogalan\Documents\EC-Lab\Data\Scott\_cyclic_pause_tafel_CA.mps
Saved on :
	File : 2023_01_31_Co25Ni25Fe50 elect1 ref307__01_CV_C04.mpr
	Directory : C:\Users\grupogalan\Documents\EC-Lab\Data\Scott\
	Host : 169.254.104.159
Device : VSP (SN 1176)
Address : USB
EC-Lab for windows v11.46 (software)
Internet server v11.40 (firmware)
Command interpretor v11.40 (firmware)
Electrode material :
Initial state :
Electrolyte :
Comments :
Electrode surface area : 0.001 cm²
Characteristic mass : 0.001 g
Equivalent Weight : 0.000 g/eq.
Density : 0.000 g/cm3
Volume (V) : 0.001 cm³
Cycle Definition : Charge/Discharge alternance
Ei (V)              0.000
vs.                 Eoc
dE/dt               10.000
dE/dt unit          mV/s
E1 (V)              1.000
vs.                 Ref
Step percent        50
N                   10
E range min (V)     -2.500
E range max (V)     2.500
I Range             Auto
I Range min         Unset
I Range max         Unset
I Range init        Unset
Bandwidth           5
E2 (V)              0.000
vs.                 Ref
nc cycles           2
Reverse Scan        0
Ef (V)              0.000
vs.                 Eoc

mode	ox/red	error	control changes	counter inc.	time/s	control/V	Ewe/V	<I>/mA	cycle number	(Q-Qo)/C	I Range	P/W
2	0	0	1	0	0.000000000000000E+000	-0.181041	-0.184147	-0.055237	1	0.0000000E+000	13	1.01717e-05
2	1	0	1	0	4.5858	-0.135184	-0.134316	0.00149804	1	4.65059e-06	12	-2.01211e-07
2	1	0	0	0	9.1864	-0.089177	-0.0896816	0.00652881	1	2.45185e-05	12	-5.85514e-07
2	0	0	0	0	13.7872	-0.0431701	-0.0431537	0.00844911	1	6.27602e-05	12	-3.64611e-07
2	0	0	1	0	18.3878	0.00283676	0.00201786	0.00727523	1	0.000101831	12	1.46804e-08
2	0	0	1	0	22.9886	0.0488436	0.0491517	0.00512543	1	0.000132224	12	2.51923e-07
2	1	0	0	0	27.5892	0.0948504	0.095671	0.00446825	1	0.000155446	12	4.27482e-07
2	0	0	1	0	32.1898	0.140857	0.139852	0.00435586	1	0.000177389	12	6.09177e-07
2	0	0	1	0	36.7906	0.186864	0.186233	0.0048125	1	0.000201077	12	8.96245e-07
2	1	0	0	0	41.3912	0.232871	0.232116	0.00558559	1	0.000227403	12	1.29651e-06
2	0	0	0	0	45.992	0.278878	0.281215	0.00661932	1	0.00025702	12	1.86145e-06
2	1	0	1	0	50.5926	0.324885	0.322372	0.00769927	1	0.000291593	12	2.48203e-06
2	1	0	1	0	55.1934	0.370891	0.370872	0.00943834	1	0.000333426	12	3.50042e-06
2	1	0	0	0	59.794	0.416898	0.417012	0.0117698	1	0.000384073	12	4.90812e-06
2	1	0	1	0	64.3946	0.462905	0.461731	0.0148558	1	0.000447201	12	6.85936e-06
2	1	0	1	0	68.9954	0.508912	0.51008	0.0200822	1	0.000529514	12	1.02435e-05
2	1	0	0	0	73.596	0.554919	0.554894	0.0271633	1	0.00063925	12	1.50728e-05
2	1	0	0	0	78.1968	0.600926	0.601598	0.0372703	1	0.000787862	12	2.24218e-05
2	1	0	1	0	82.7974	0.646932	0.646132	0.0548413	1	0.000996851	12	3.54347e-05
2	1	0	1	0	87.3982	0.692939	0.692932	0.0938117	1	0.00132904	12	6.50051e-05
2	1	0	0	0	91.9988	0.738946	0.739791	0.182832	1	0.0019432	12	0.000135257
2	1	0	1	0	96.5994	0.784953	0.785711	0.377873	1	0.00317729	12	0.000296899
2	1	0	1	0	101.2	0.83096	0.829388	0.82469	1	0.00580323	12	0.000683988
2	1	0	0	0	105.831	0.877267	0.878288	1.89587	1	0.0117387	11	0.00166512
2	1	0	0	0	110.432	0.923273	0.922146	4.49152	1	0.0256304	11	0.00414183
2	1	0	1	0	115.032	0.96928	0.968854	10.232	1	0.0576236	11	0.0099133
2	1	0	1	0	119.563	0.985483	0.985802	14.8674	1	0.12368	10	0.0146563
2	1	0	0	0	124.164	0.939476	0.938574	7.1972	1	0.172841	10	0.0067551
2	1	0	1	0	128.795	0.893169	0.89362	3.115	1	0.195559	11	0.00278363
2	1	0	1	0	133.395	0.847162	0.847761	1.24873	1	0.204995	11	0.00105862
2	1	0	0	0	137.996	0.801155	0.800355	0.47604	1	0.208687	11	0.000381001
2	1	0	0	0	142.627	0.754849	0.755578	0.178129	1	0.210091	12	0.00013459
2	1	0	1	0	147.227	0.708842	0.70921	0.0658929	1	0.210609	12	4.67319e-05
2	0	0	1	0	151.828	0.662835	0.660917	0.0239722	1	0.210797	12	1.58436e-05
2	1	0	0	0	156.429	0.616828	0.618066	0.0100184	1	0.210868	12	6.19206e-06
2	0	0	1	0	161.029	0.570822	0.57309	0.00528609	1	0.2109	12	3.02941e-06
2	1	0	1	0	165.63	0.524814	0.523673	0.00319697	1	0.210917	12	1.67417e-06
2	0	0	0	0	170.231	0.478807	0.47894	0.00136655	1	0.210925	12	6.54496e-07
2	1	0	0	0	174.832	0.432801	0.432074	0.000291212	1	0.210928	12	1.25825e-07
2	1	0	1	0	179.432	0.386794	0.387969	-8.84314e-05	1	0.210927	12	-3.43087e-08
2	0	0	1	0	184.033	0.340787	0.338581	-0.000310698	1	0.210924	12	-1.05196e-07
2	1	0	0	0	188.634	0.29478	0.295769	-0.000156327	1	0.210921	12	-4.62367e-08
2	1	0	1	0	193.234	0.248774	0.248241	-0.000428583	1	0.210919	12	-1.06392e-07
2	1	0	1	0	197.835	0.202766	0.203319	-0.000327304	1	0.210915	12	-6.65471e-08
2	0	0	0	0	202.436	0.15676	0.156541	-0.000521826	1	0.210912	12	-8.1687e-08
2	1	0	0	0	207.036	0.110753	0.111808	-0.000580129	1	0.210908	12	-6.48628e-08
2	1	0	1	0	211.637	0.064746	0.0659801	-0.000977557	1	0.210903	12	-6.44993e-08
2	1	0	1	0	216.238	0.0187391	0.0182647	-0.00102435	1	0.210898	12	-1.87095e-08
2	0	0	1	1	220.669	0.0255401	0.0249974	-0.00014034	2	0.210895	12	-3.50813e-09
2	1	0	0	1	225.27	0.071547	0.0708651	0.000428138	2	0.210897	12	3.034e-08
2	0	0	0	1	229.87	0.117554	0.117086	0.000390507	2	0.2109	12	4.57229e-08
2	0	0	1	1	234.471	0.163561	0.164942	0.00064815	2	0.210903	12	1.06907e-07
2	0	0	1	1	239.072	0.209567	0.209121	0.000564357	2	0.210907	12	1.18019e-07
2	1	0	0	1	243.672	0.255574	0.255362	0.000881159	2	0.210913	12	2.25015e-07
2	0	0	1	1	248.273	0.301581	0.301145	0.00121342	2	0.210919	12	3.65414e-07
2	1	0	1	1	252.874	0.347588	0.348427	0.00193249	2	0.210927	12	6.73334e-07
2	0	0	0	1	257.474	0.393595	0.394029	0.0021875	2	0.210937	12	8.61938e-07
2	0	0	0	1	262.075	0.439602	0.439317	0.00309705	2	0.210951	12	1.36059e-06
2	1	0	1	1	266.676	0.485609	0.48604	0.00476025	2	0.210971	12	2.31367e-06
2	1	0	1	1	271.277	0.531615	0.530621	0.00697283	2	0.210999	12	3.69993e-06
2	1	0	0	1	275.877	0.577622	0.578305	0.00976237	2	0.211038	12	5.64563e-06
2	1	0	1	1	280.478	0.623629	0.623849	0.0148616	2	0.211094	12	9.27138e-06
2	0	0	1	1	285.079	0.669636	0.670769	0.0295115	2	0.21119	12	1.97954e-05
2	1	0	0	1	289.679	0.715643	0.716307	0.0764396	2	0.211417	12	5.47542e-05
2	1	0	0	1	294.28	0.761649	0.762214	0.204473	2	0.212019	12	0.000155852
2	1	0	1	1	298.881	0.807656	0.809106	0.534766	2	0.2136	12	0.000432683
2	1	0	1	1	303.511	0.853963	0.853652	1.36953	2	0.217731	11	0.0011691
2	1	0	0	1	308.112	0.89997	0.90023	3.2857	2	0.227892	11	0.00295788
2	1	0	1	1	312.713	0.945977	0.946046	6.83079	2	0.250507	11	0.00646225
2	1	0	1	1	317.343	0.992284	0.992605	12.2177	2	0.294016	10	0.0121273
2	1	0	0	1	321.774	0.96348	0.964965	8.31134	2	0.343017	10	0.00802015
2	1	0	0	1	326.405	0.917173	0.917219	4.08975	2	0.370755	11	0.0037512
2	1	0	1	1	331.006	0.871166	0.872912	1.84166	2	0.383807	11	0.0016076
2	1	0	1	1	335.607	0.825159	0.826359	0.766296	2	0.389475	11	0.000633236
2	1	0	0	1	340.237	0.778852	0.779878	0.302059	2	0.391788	12	0.000235569
2	1	0	1	1	344.838	0.732845	0.731057	0.116325	2	0.392684	12	8.50403e-05
2	1	0	1	1	349.439	0.686838	0.686566	0.0426759	2	0.393022	12	2.92998e-05
2	0	0	0	1	354.039	0.640832	0.640452	0.0152206	2	0.393143	12	9.74804e-06
[...]
2	1	0	1	1	395.445	0.22677	0.226039	-0.000562993	2	0.393194	12	-1.27258e-07
2	0	0	1	1	400.046	0.180763	0.180835	-0.000405174	2	0.39319	12	-7.32698e-08
2	0	0	0	1	404.647	0.134756	0.134792	-0.000297143	2	0.393187	12	-4.00526e-08
2	1	0	1	1	409.247	0.0887495	0.087563	-0.000659164	2	0.393183	12	-5.77184e-08
2	1	0	1	1	413.848	0.0427427	0.0423872	-0.000856854	2	0.393178	12	-3.63196e-08
2	1	0	1	0	418.279	0.00153657	0.00183851	-0.000614784	3	0.393173	12	-1.13029e-09
2	1	0	1	0	422.88	0.0475434	0.04669	0.000267136	3	0.393174	12	1.24726e-08
2	1	0	0	0	427.481	0.0935502	0.0944432	0.00052086	3	0.393177	12	4.91917e-08
2	1	0	1	0	432.081	0.139557	0.13792	0.000494752	3	0.393181	12	6.82361e-08
2	1	0	1	0	436.682	0.185564	0.185887	0.00080317	3	0.393185	12	1.49299e-07
2	0	0	0	0	441.283	0.231571	0.231363	0.000784487	3	0.39319	12	1.81501e-07
2	1	0	0	0	445.884	0.277578	0.27843	0.0012803	3	0.393196	12	3.56473e-07
2	0	0	1	0	450.484	0.323584	0.323193	0.00144186	3	0.393204	12	4.65998e-07
2	0	0	1	0	455.085	0.369592	0.370459	0.00197607	3	0.393213	12	7.32053e-07
2	0	0	0	0	459.686	0.415598	0.413771	0.00268167	3	0.393225	12	1.1096e-06
2	0	0	1	0	464.286	0.461605	0.463027	0.00394418	3	0.393242	12	1.82626e-06
2	0	0	1	0	468.887	0.507612	0.507407	0.00594376	3	0.393266	12	3.0159e-06
2	0	0	0	0	473.488	0.553619	0.55441	0.00827061	3	0.3933	12	4.58531e-06
2	1	0	0	0	478.088	0.599625	0.597627	0.0120924	3	0.393349	12	7.22677e-06
2	0	0	1	0	482.689	0.645632	0.646134	0.0208607	3	0.393422	12	1.34788e-05
2	1	0	1	0	487.29	0.69164	0.691222	0.0502185	3	0.393575	12	3.47121e-05
2	1	0	0	0	491.89	0.737646	0.736242	0.138608	3	0.393978	12	0.000102049
2	1	0	1	0	496.491	0.783653	0.783771	0.364335	3	0.395059	12	0.000285555
2	1	0	1	0	501.092	0.82966	0.828341	0.91569	3	0.39783	12	0.000758503
2	1	0	0	0	505.722	0.875966	0.876901	2.1691	3	0.404617	11	0.00190209
2	1	0	0	0	510.323	0.921973	0.922663	4.6174	3	0.419702	11	0.0042603
2	1	0	1	0	514.924	0.96798	0.966833	8.53409	3	0.449384	11	0.00825104
2	1	0	1	0	519.385	0.987482	0.986881	10.5182	3	0.496547	10	0.0103802
2	1	0	0	0	523.986	0.941476	0.942156	5.6717	3	0.532947	10	0.00534363
2	1	0	1	0	528.616	0.895169	0.897022	2.77722	3	0.551856	11	0.00249123
2	1	0	1	0	533.217	0.849162	0.84919	1.24672	3	0.560701	11	0.0010587
2	1	0	0	0	537.818	0.803156	0.804342	0.523982	3	0.564547	11	0.000421461
2	1	0	0	0	542.448	0.756849	0.757248	0.209512	3	0.566135	12	0.000158653
2	1	0	1	0	547.049	0.710842	0.710253	0.0817839	3	0.566761	12	5.80872e-05
2	1	0	1	0	551.65	0.664836	0.665677	0.0297698	3	0.566998	12	1.98171e-05
2	0	0	0	0	556.25	0.618828	0.619291	0.0102085	3	0.567082	12	6.32204e-06
2	1	0	1	0	560.851	0.572821	0.570901	0.00422932	3	0.567111	12	2.41452e-06
2	0	0	1	0	565.452	0.526815	0.528372	0.00148127	3	0.567122	12	7.82662e-07
2	0	0	0	0	570.052	0.480808	0.481292	0.000235369	3	0.567124	12	1.13281e-07
2	1	0	0	0	574.653	0.434801	0.435471	-0.000333537	3	0.567121	12	-1.45246e-07
2	1	0	1	0	579.254	0.388794	0.389931	-0.00108002	3	0.567116	12	-4.21133e-07
2	0	0	1	0	583.854	0.342788	0.342856	-0.000948875	3	0.56711	12	-3.25328e-07
2	0	0	0	0	588.455	0.29678	0.297072	-0.000346591	3	0.567105	12	-1.02962e-07
2	0	0	1	0	593.056	0.250774	0.251259	-0.000736048	3	0.567101	12	-1.84939e-07
2	0	0	1	0	597.657	0.204767	0.203215	-0.000577565	3	0.567098	12	-1.1737e-07
2	1	0	0	0	602.257	0.15876	0.158986	-0.000493064	3	0.567094	12	-7.83903e-08
2	1	0	0	0	606.858	0.112753	0.11416	-0.000702497	3	0.56709	12	-8.01973e-08
2	1	0	1	0	611.459	0.0667462	0.0653709	-0.000430679	3	0.567086	12	-2.81539e-08
2	1	0	1	0	616.059	0.0207396	0.0207241	-0.00073094	3	0.567081	12	-1.51481e-08
2	1	0	1	0	618.128	-1.36638e-05	0.000213717	-0.00568265	3	0.567079	12	-1.21448e-09

File: 2023_01_31_Co25Ni25Fe50 elect1 ref307_C05.mpt
EC-Lab ASCII FILE
Nb header lines : 63

Potentio Electrochemical Impedance Spectroscopy

Run on channel : 5 (SN 30436)
User :
CE vs. WE compliance from -10 V to 10 V
Electrode connection : standard
Potential control : Ewe
Ewe ctrl range : min = -10.00 V, max = 10.00 V
Safety Limits :
	Do not start on E overload
Acquisition started on : 01/31/2023 15:11:30.813
Loaded Setting File :  NONE
Saved on :
	File : 2023_01_31_Co25Ni25Fe50 elect1 ref307_C05.mpr
	Directory : C:\Users\grupogalan\Documents\EC-Lab\Data\Scott\
	Host : 169.254.104.159
Device : VSP (SN 1176)
Address : USB
EC-Lab for windows v11.46 (software)
Internet server v11.40 (firmware)
Command interpretor v11.40 (firmware)
Electrode material :
Initial state :
Electrolyte :
Comments :
Electrode surface area : 0.001 cm²
Characteristic mass : 0.001 g
Equivalent Weight : 0.000 g/eq.
Density : 0.000 g/cm3
Volume (V) : 0.001 cm³
Cycle Definition : Charge/Discharge alternance
Mode                Single sine
E (V)               0.0000
vs.                 Eoc
tE (h:m:s)          0:00:0.0000
record              0
dI                  0.000
unit dI             mA
dt (s)              0.000
fi                  200.000
unit fi             kHz
ff                  100.000
unit ff             mHz
Nd                  6
Points              per decade
spacing             Logarithmic
Va (mV)             10.0
pw                  0.10
Na                  2
corr                0
E range min (V)     -10.000
E range max (V)     10.000
I Range             Auto
Bandwidth           5
nc cycles           0
goto Ns'            0
nr cycles           0
inc. cycle          0

freq/Hz	Re(Z)/Ohm	-Im(Z)/Ohm	|Z|/Ohm	Phase(Z)/deg	time/s	<Ewe>/V	<I>/mA	Cs/µF	Cp/µF	cycle number	I Range	|Ewe|/V	|I|/A	Ns	(Q-Qo)/mA.h	Re(Y)/Ohm-1	Im(Y)/Ohm-1	|Y|/Ohm-1	Phase(Y)/deg	Re(C)/nF	Im(C)/nF	|C|/nF	Phase(C)/deg	Re(M)	Im(M)	|M|	Phase(M)/deg	Re(Permittivity)	Im(Permittivity)	|Permittivity|	Phase(Permittivity)/deg	Re(Resistivity)/Ohm.cm	Im(Resistivity)/Ohm.cm	|Resistivity|/Ohm.cm	Phase(Resistivity)/deg	Re(Conductivity)/mS/cm	Im(Conductivity)/mS/cm	|Conductivity|/mS/cm	Phase(Conductivity)/deg	Tan(Delta)	Loss Angle(Delta)/deg	dq/mA.h
199998	1.58143	-1.58529	2.23921	45.0698	2.56548	-0.177723	-0.180037	-0.501979	-0.251602	1	9	0.00767864	0.00342918	0	-3.47452e-05	0.315399	-0.316169	0.446586	-45.0698	-251.602	250.989	355.385	-135.07	0.0000000E+000	0.0000000E+000	0.0000000E+000	135.07	0.0000000E+000	0.0000000E+000	0.0000000E+000	-135.07	0.0000000E+000	0.0000000E+000	0.0000000E+000	45.0698	0.0000000E+000	0.0000000E+000	0.0000000E+000	-45.0698	-0.997565	-45.0698	-3.47452e-05
91291.2	1.07198	-0.312312	1.11655	16.243	3.40948	-0.177846	-0.175714	-5.58216	-0.436739	1	9	0.00911195	0.00816079	0	-4.61763e-05	0.859864	-0.250513	0.895613	-16.243	-436.739	1499.07	1561.39	-106.243	0.0000000E+000	0.0000000E+000	0.0000000E+000	106.243	0.0000000E+000	0.0000000E+000	0.0000000E+000	-106.243	0.0000000E+000	0.0000000E+000	0.0000000E+000	16.243	0.0000000E+000	0.0000000E+000	0.0000000E+000	-16.243	-3.43241	-16.243	1.09762e-05
41669.8	1.04286	0.0202908	1.04306	-1.11465	4.2535	-0.177725	-0.170179	188.235	0.0712327	1	9	0.0103653	0.00993744	0	-8.99825e-05	0.958536	0.0186501	0.958718	1.11465	71.2328	3661.07	3661.76	-88.8853	0.0000000E+000	0.0000000E+000	0.0000000E+000	88.8853	0.0000000E+000	0.0000000E+000	0.0000000E+000	-88.8853	0.0000000E+000	0.0000000E+000	0.0000000E+000	-1.11465	0.0000000E+000	0.0000000E+000	0.0000000E+000	1.11465	51.3959	1.11465	-2.70608e-05
19020.9	1.11598	0.280996	1.15081	-14.1329	5.09749	-0.17785	-0.164216	29.7775	1.77534	1	9	0.0110143	0.00957092	0	-0.000112117	0.842652	0.212175	0.868954	14.1329	1775.34	7050.77	7270.85	-75.8671	0.0000000E+000	0.0000000E+000	0.0000000E+000	75.8671	0.0000000E+000	0.0000000E+000	0.0000000E+000	-75.8671	0.0000000E+000	0.0000000E+000	0.0000000E+000	-14.1329	0.0000000E+000	0.0000000E+000	0.0000000E+000	14.1329	3.9715	14.1329	-4.83821e-06
8683.37	1.16997	0.652835	1.33979	-29.1611	5.96898	-0.177978	-0.179851	28.0756	6.66597	1	9	0.0101581	0.0075819	0	-0.00014594	0.651785	0.36369	0.746387	29.1611	6665.97	11946.4	13680.3	-60.8389	0.0000000E+000	0.0000000E+000	0.0000000E+000	60.8389	0.0000000E+000	0.0000000E+000	0.0000000E+000	-60.8389	0.0000000E+000	0.0000000E+000	0.0000000E+000	-29.1611	0.0000000E+000	0.0000000E+000	0.0000000E+000	29.1611	1.79214	29.1611	-2.6037e-05
3961.2	1.25216	1.3304	1.82698	-46.7353	6.84892	-0.17797	-0.173031	30.2003	16.0143	1	9	0.00967881	0.0052977	0	-0.000187994	0.375138	0.398578	0.547351	46.7353	16014.3	15072.5	21991.7	-43.2647	0.0000000E+000	0.0000000E+000	0.0000000E+000	43.2647	0.0000000E+000	0.0000000E+000	0.0000000E+000	-43.2647	0.0000000E+000	0.0000000E+000	0.0000000E+000	-46.7353	0.0000000E+000	0.0000000E+000	0.0000000E+000	46.7353	0.941189	46.7353	-1.70398e-05
1808.26	1.45678	2.77712	3.13601	-62.32	7.99396	-0.177953	-0.172639	31.6931	24.854	1	9	0.0102618	0.00327225	0	-0.000241432	0.148128	0.282383	0.318876	62.32	24854	13037.6	28066	-27.68	0.0000000E+000	0.0000000E+000	0.0000000E+000	27.68	0.0000000E+000	0.0000000E+000	0.0000000E+000	-27.68	0.0000000E+000	0.0000000E+000	0.0000000E+000	-62.32	0.0000000E+000	0.0000000E+000	0.0000000E+000	62.32	0.524566	62.32	-3.43638e-05
825.264	1.66795	5.87064	6.10299	-74.1392	9.16769	-0.177903	-0.0228506	32.8505	30.3968	1	10	0.0102083	0.00167267	0	-0.000257456	0.0447815	0.157616	0.163854	74.1392	30396.8	8636.26	31599.8	-15.8608	0.0000000E+000	0.0000000E+000	0.0000000E+000	15.8608	0.0000000E+000	0.0000000E+000	0.0000000E+000	-15.8608	0.0000000E+000	0.0000000E+000	0.0000000E+000	-74.1392	0.0000000E+000	0.0000000E+000	0.0000000E+000	74.1392	0.284118	74.1392	-1.92275e-06
377.051	2.22338	12.2261	12.4266	-79.6931	10.0907	-0.177878	-0.0232495	34.5248	33.4196	1	10	0.00987355	0.000794547	0	-0.00026345	0.0143981	0.0791737	0.0804723	79.6931	33419.6	6077.51	33967.7	-10.3069	0.0000000E+000	0.0000000E+000	0.0000000E+000	10.3069	0.0000000E+000	0.0000000E+000	0.0000000E+000	-10.3069	0.0000000E+000	0.0000000E+000	0.0000000E+000	-79.6931	0.0000000E+000	0.0000000E+000	0.0000000E+000	79.6931	0.181855	79.6931	-2.46795e-06
172.037	3.17218	25.2725	25.4708	-82.8457	11.2594	-0.177805	-0.0030706	36.6058	36.038	1	11	0.00975146	0.000382848	0	-0.00026739	0.00488958	0.0389549	0.0392606	82.8457	36038	4523.45	36320.8	-7.15429	0.0000000E+000	0.0000000E+000	0.0000000E+000	7.15429	0.0000000E+000	0.0000000E+000	0.0000000E+000	-7.15429	0.0000000E+000	0.0000000E+000	0.0000000E+000	-82.8457	0.0000000E+000	0.0000000E+000	0.0000000E+000	82.8457	0.125519	82.8457	-1.78592e-06
78.5176	4.55397	53.943	54.1349	-85.1744	12.1865	-0.177906	-0.00283703	37.5767	37.3107	1	11	0.00979881	0.000181007	0	-0.000268079	0.00155395	0.0184069	0.0184724	85.1744	37310.7	3149.84	37443.5	-4.82558	0.0000000E+000	0.0000000E+000	0.0000000E+000	4.82558	0.0000000E+000	0.0000000E+000	0.0000000E+000	-4.82558	0.0000000E+000	0.0000000E+000	0.0000000E+000	-85.1744	0.0000000E+000	0.0000000E+000	0.0000000E+000	85.1744	0.0844219	85.1744	-4.29602e-07
35.8372	10.7281	111.651	112.165	-84.5115	13.1151	-0.177576	-0.00300201	39.7764	39.4125	1	11	0.00969545	8.64393e-05	0	-0.000268606	0.000852724	0.00887458	0.00891545	84.5115	39412.5	3787	39594	-5.48848	0.0000000E+000	0.0000000E+000	0.0000000E+000	5.48848	0.0000000E+000	0.0000000E+000	0.0000000E+000	-5.48848	0.0000000E+000	0.0000000E+000	0.0000000E+000	-84.5115	0.0000000E+000	0.0000000E+000	0.0000000E+000	84.5115	0.0960861	84.5115	-3.13053e-07