Folder: EC-Lab-Processing/Data (part 9)

File: 2025-02-10 exp 8 CV 100mvs_C05.mpt
EC-Lab ASCII FILE
Nb header lines : 59

Cyclic Voltammetry

Run on channel : 5 (SN 39658)
User :
CE vs. WE compliance from -10 V to 10 V
Electrode connection : standard
Potential control : Ewe
Ewe ctrl range : min = -2.50 V, max = 2.50 V
Safety Limits :
	Do not start on E overload
Acquisition started on : 02/10/2025 12:58:40.102
Loaded Setting File :  NONE
Saved on :
	File : 2025-02-10 exp 8 CV 100mvs_C05.mpr
	Directory : C:\Users\thefo\OneDrive\Documents\EC-Lab\Data\CHEM 451\
	Host : 172.24.113.132
Device : VSP (SN 1910)
Address : USB
EC-Lab for windows v11.46 (software)
Internet server v11.40 (firmware)
Command interpretor v11.40 (firmware)
Electrode material : Au/Pd
Initial state :
Electrolyte : NaCl (0.2M)
Comments : Fe(CN)63-/Fe(CN)64- 5.10-3 M
Current amplifier : VSPB-4A
Reference electrode : SCE Saturated Calomel Electrode (0.241 V)
Electrode surface area : 0.001 cm²
Characteristic mass : 0.001 g
Equivalent Weight : 0.000 g/eq.
Density : 0.000 g/cm3
Volume (V) : 0.001 cm³
Cycle Definition : Charge/Discharge alternance
Ei (V)              0.000
vs.                 Eoc
dE/dt               100.000
dE/dt unit          mV/s
E1 (V)              -0.200
vs.                 Ref
Step percent        50
N                   10
E range min (V)     -2.500
E range max (V)     2.500
I Range             Auto
I Range min         Unset
I Range max         Unset
I Range init        Unset
Bandwidth           4
E2 (V)              0.500
vs.                 Ref
nc cycles           0
Reverse Scan        1
Ef (V)              0.000
vs.                 Ref

mode	ox/red	error	control changes	counter inc.	time/s	control/V	Ewe/V	<I>/mA	cycle number	(Q-Qo)/C	I Range	P/W
2	1	0	0	0	0.000000000000000E+000	0.301882	0.302125	5.57845e-05	1	0.0000000E+000	14	1.68539e-08
2	0	0	1	0	0.1357	0.288328	0.28849	-0.00471055	1	-3.99254e-07	14	-1.35895e-06
2	0	0	1	0	0.2757	0.274323	0.27447	-0.00792032	1	-1.28066e-06	14	-2.17389e-06
2	0	0	1	0	0.4457	0.257318	0.257559	-0.0125765	1	-2.99824e-06	13	-3.23918e-06
2	0	0	1	0	0.5857	0.243313	0.243479	-0.0174079	1	-5.09329e-06	13	-4.23844e-06
2	0	0	1	0	0.7259	0.229309	0.229506	-0.0228865	1	-7.91653e-06	13	-5.25259e-06
2	0	0	1	0	0.8659	0.215304	0.21545	-0.0285057	1	-1.15218e-05	13	-6.14155e-06
2	0	0	1	0	1.0059	0.201299	0.201465	-0.0333796	1	-1.58716e-05	13	-6.72482e-06
2	0	0	1	0	1.1459	0.187295	0.187452	-0.0368334	1	-2.08086e-05	13	-6.9045e-06
2	0	0	1	0	1.2861	0.17329	0.173454	-0.0385096	1	-2.6111e-05	13	-6.67963e-06
2	0	0	1	0	1.4261	0.159286	0.159438	-0.0386632	1	-3.15299e-05	13	-6.16437e-06
2	0	0	1	0	1.5661	0.145281	0.145438	-0.0378469	1	-3.68952e-05	13	-5.50437e-06
2	0	0	1	0	1.7061	0.131277	0.131396	-0.0365406	1	-4.21078e-05	13	-4.80128e-06
2	0	0	1	0	1.8461	0.117272	0.117486	-0.0351194	1	-4.71278e-05	13	-4.12604e-06
2	0	0	1	0	1.9863	0.103268	0.103501	-0.0337055	1	-5.19537e-05	13	-3.48855e-06
2	0	0	1	0	2.1263	0.0892632	0.0894257	-0.0323797	1	-5.65811e-05	13	-2.89557e-06
2	0	0	1	0	2.2663	0.0752586	0.0754279	-0.0311859	1	-6.10316e-05	13	-2.35229e-06
2	0	0	1	0	2.4063	0.0612541	0.0614281	-0.0301183	1	-6.53235e-05	13	-1.85011e-06
2	0	0	1	0	2.5465	0.0472496	0.0474038	-0.0292024	1	-6.94823e-05	13	-1.3843e-06
2	0	0	1	0	2.6865	0.033245	0.033389	-0.0284148	1	-7.35169e-05	13	-9.48743e-07
2	0	0	1	0	2.8265	0.0192405	0.0194274	-0.0277763	1	-7.74521e-05	13	-5.3962e-07
2	0	0	1	0	2.9665	0.00523598	0.00540519	-0.0272307	1	-8.13038e-05	13	-1.47187e-07
2	0	0	1	0	3.1067	-0.00876856	-0.00873898	-0.0267858	1	-8.50923e-05	13	2.3408e-07
2	0	0	1	0	3.2467	-0.0227731	-0.0226667	-0.0264119	1	-8.88172e-05	13	5.98672e-07
2	0	0	1	0	3.3867	-0.0367776	-0.0366921	-0.0260758	1	-9.24938e-05	13	9.56776e-07
2	0	0	1	0	3.5267	-0.0507822	-0.0507397	-0.0258349	1	-9.61304e-05	13	1.31086e-06
2	0	0	1	0	3.6667	-0.0647867	-0.0647035	-0.0256196	1	-9.9734e-05	13	1.65768e-06
2	0	0	1	0	3.8069	-0.0787913	-0.0787214	-0.0254321	1	-0.000103315	13	2.00205e-06
2	0	0	1	0	3.9469	-0.0927958	-0.0926948	-0.025309	1	-0.000106869	13	2.34601e-06
2	0	0	1	0	4.0869	-0.1068	-0.106697	-0.0251757	1	-0.000110405	13	2.68617e-06
2	0	0	1	0	4.2269	-0.120805	-0.120749	-0.0251041	1	-0.000113927	13	3.03129e-06
2	0	0	1	0	4.3671	-0.134809	-0.134739	-0.02503	1	-0.000117442	13	3.37252e-06
2	0	0	1	0	4.5071	-0.148814	-0.148732	-0.0249712	1	-0.000120944	13	3.714e-06
2	0	0	1	0	4.6471	-0.162819	-0.16275	-0.0249612	1	-0.000124442	13	4.06244e-06
2	0	0	1	0	4.7871	-0.176823	-0.176769	-0.0249339	1	-0.000127936	13	4.40754e-06
2	0	0	1	0	4.9271	-0.190828	-0.190746	-0.0249578	1	-0.000131432	13	4.7606e-06
2	0	0	1	0	5.0547	-0.196429	-0.19629	-0.0213043	1	-0.000134526	13	4.18183e-06
2	0	0	1	0	5.1949	-0.182425	-0.182241	-0.01753	1	-0.000137208	13	3.19467e-06
2	0	0	1	0	5.3349	-0.16842	-0.168267	-0.01533	1	-0.000139496	13	2.57953e-06
2	0	0	1	0	5.4749	-0.154416	-0.154266	-0.0136792	1	-0.000141519	13	2.11024e-06
2	0	0	1	0	5.6149	-0.140411	-0.14027	-0.0123417	1	-0.000143334	13	1.73117e-06
2	0	0	1	0	5.7551	-0.126407	-0.126216	-0.011186	1	-0.000144979	13	1.41185e-06
2	0	0	1	0	5.8951	-0.112402	-0.112252	-0.010207	1	-0.000146471	13	1.14576e-06
2	0	0	1	0	6.0351	-0.0983976	-0.0982774	-0.00929174	1	-0.000147831	13	9.13168e-07
2	0	0	1	0	6.1751	-0.0843931	-0.0842297	-0.00848976	1	-0.000149072	13	7.1509e-07
2	0	0	1	0	6.3151	-0.0703885	-0.0702468	-0.00776329	1	-0.000150205	13	5.45347e-07
2	0	0	1	0	6.4553	-0.056384	-0.0562512	-0.00707237	1	-0.000151241	13	3.97829e-07
2	0	0	1	0	6.5953	-0.0423795	-0.0422322	-0.00644701	1	-0.000152184	13	2.72271e-07
2	0	0	1	0	6.7353	-0.0283749	-0.0282419	-0.00584765	1	-0.000153041	13	1.65149e-07
2	0	0	1	0	6.8753	-0.0143704	-0.0142123	-0.00529185	1	-0.000153817	13	7.52091e-08
2	0	0	1	0	7.0155	-0.00036234	-0.00016357	-0.0047467	1	-0.000154517	13	7.76418e-10
2	0	0	1	0	7.1855	0.0166397	0.0168536	-0.00410743	1	-0.00015527	14	-6.92248e-08
2	0	0	1	0	7.3255	0.0306442	0.0308492	-0.00358926	1	-0.000155808	14	-1.10726e-07
2	0	0	1	0	7.4655	0.0446487	0.0448639	-0.00308302	1	-0.000156274	14	-1.38316e-07
2	0	0	1	0	7.6057	0.0586533	0.0589105	-0.00250603	1	-0.000156666	14	-1.47632e-07
2	0	0	1	0	7.7457	0.0726578	0.0729083	-0.00192011	1	-0.000156978	14	-1.39992e-07
2	0	0	1	0	7.8857	0.0866623	0.0869007	-0.00124064	1	-0.0001572	14	-1.07812e-07
2	0	0	1	0	8.0257	0.100667	0.100889	-0.000408865	1	-0.000157317	14	-4.12499e-08
2	1	0	1	0	8.1657	0.114671	0.114921	0.000631015	1	-0.000157304	14	7.25167e-08
2	1	0	1	0	8.3059	0.128676	0.128886	0.00203445	1	-0.000157123	14	2.62212e-07
2	1	0	1	0	8.4459	0.14268	0.142925	0.00388691	1	-0.000156716	14	5.55536e-07
2	1	0	1	0	8.5859	0.156685	0.156917	0.00642744	1	-0.000156	14	1.00857e-06
2	1	0	1	0	8.7259	0.17069	0.170942	0.00987808	1	-0.000154868	14	1.68858e-06
2	1	0	1	0	8.8961	0.187695	0.187952	0.0152318	1	-0.000152764	13	2.86284e-06
2	1	0	1	0	9.0361	0.2017	0.201936	0.0204388	1	-0.000150267	13	4.12733e-06
2	1	0	1	0	9.1761	0.215704	0.215926	0.0256316	1	-0.000147034	13	5.53454e-06
2	1	0	1	0	9.3161	0.229709	0.229938	0.0299256	1	-0.000143126	13	6.88104e-06
2	1	0	1	0	9.4563	0.243713	0.243944	0.0326107	1	-0.000138719	13	7.9552e-06
2	1	0	1	0	9.5963	0.257718	0.257952	0.0334981	1	-0.000134069	13	8.64088e-06
2	1	0	1	0	9.7363	0.271722	0.271946	0.0329608	1	-0.0001294	13	8.96356e-06
2	1	0	1	0	9.8763	0.285727	0.285945	0.0315533	1	-0.000124874	13	9.0225e-06
2	1	0	1	0	10.0163	0.299731	0.299975	0.0298021	1	-0.000120574	13	8.93989e-06
[...]
2	1	0	1	0	10.5765	0.355749	0.355963	0.0238123	1	-0.000105678	13	8.4763e-06
2	1	0	1	0	10.7167	0.369754	0.369997	0.0227494	1	-0.000102413	13	8.4172e-06
2	1	0	1	0	10.8567	0.383759	0.384045	0.0218379	1	-9.92902e-05	13	8.38675e-06
2	1	0	1	0	10.9967	0.397763	0.398006	0.0210325	1	-9.62878e-05	13	8.37104e-06
2	1	0	1	0	11.1367	0.411768	0.412017	0.0203281	1	-9.33903e-05	13	8.37553e-06
2	1	0	1	0	11.2769	0.425772	0.426069	0.0197037	1	-9.05809e-05	13	8.39512e-06
2	1	0	1	0	11.4169	0.439777	0.44007	0.0191742	1	-8.7856e-05	13	8.43797e-06
2	1	0	1	0	11.5569	0.453781	0.454059	0.0187141	1	-8.52016e-05	13	8.49731e-06
2	1	0	1	0	11.6969	0.467786	0.46807	0.0182987	1	-8.26085e-05	13	8.56506e-06
2	1	0	1	0	11.8369	0.48179	0.482069	0.0179505	1	-8.00685e-05	13	8.65339e-06
2	1	0	1	0	11.9771	0.495795	0.496092	0.017637	1	-7.75711e-05	13	8.74956e-06
2	1	0	1	1	12.0853	0.493394	0.493567	0.013753	1	-7.58469e-05	13	6.78801e-06
2	1	0	1	1	12.2255	0.479389	0.479585	0.0111756	1	-7.41187e-05	13	5.35966e-06
2	1	0	1	1	12.3655	0.465385	0.465586	0.00944181	1	-7.26834e-05	13	4.39597e-06
2	1	0	1	1	12.5055	0.45138	0.451611	0.00806913	1	-7.1464e-05	13	3.6441e-06
2	1	0	1	1	12.6455	0.437376	0.437569	0.00690147	1	-7.04216e-05	13	3.01987e-06
2	1	0	1	1	12.7857	0.423371	0.423557	0.00588377	1	-6.95308e-05	13	2.49211e-06
2	1	0	1	1	12.9257	0.409367	0.40951	0.00494201	1	-6.87778e-05	13	2.0238e-06
2	1	0	1	1	13.0957	0.392361	0.392556	0.00386476	1	-6.80268e-05	14	1.51713e-06
2	1	0	1	1	13.2357	0.378357	0.378512	0.00304097	1	-6.75427e-05	14	1.15104e-06
2	1	0	1	1	13.3757	0.364352	0.364513	0.00219962	1	-6.71758e-05	14	8.01792e-07
2	1	0	1	1	13.5159	0.350348	0.350525	0.00130566	1	-6.69287e-05	14	4.57667e-07
2	1	0	1	1	13.6559	0.336343	0.336492	0.000332283	1	-6.68128e-05	14	1.11811e-07
2	0	0	1	1	13.7959	0.322339	0.322489	-0.000809188	1	-6.68444e-05	14	-2.60954e-07
2	0	0	1	1	13.9359	0.308334	0.308487	-0.00217419	1	-6.70512e-05	14	-6.7071e-07
2	0	0	1	1	14.0761	0.29433	0.294507	-0.00393428	1	-6.74757e-05	14	-1.15867e-06
2	0	0	1	1	14.2161	0.280325	0.280501	-0.00626961	1	-6.81829e-05	14	-1.75863e-06
2	0	0	1	1	14.3561	0.26632	0.26655	-0.0093551	1	-6.92675e-05	14	-2.49361e-06
2	0	0	1	1	14.5261	0.249315	0.24946	-0.0143983	1	-7.1255e-05	13	-3.5918e-06
2	0	0	1	1	14.6663	0.23531	0.235472	-0.0195192	1	-7.36278e-05	13	-4.59622e-06
2	0	0	1	1	14.8063	0.221306	0.22145	-0.0251047	1	-7.67545e-05	13	-5.55943e-06
2	0	0	1	1	14.9463	0.207301	0.207439	-0.0303199	1	-8.06469e-05	13	-6.28954e-06
2	0	0	1	1	15.0863	0.193297	0.193471	-0.0343033	1	-8.51938e-05	13	-6.6367e-06
2	0	0	1	1	15.2263	0.179292	0.179431	-0.0366775	1	-9.01886e-05	13	-6.58108e-06
2	0	0	1	1	15.3665	0.165288	0.165413	-0.0373327	1	-9.53964e-05	13	-6.17531e-06
2	0	0	1	1	15.5065	0.151283	0.151453	-0.0367841	1	-0.000100598	13	-5.57107e-06
2	0	0	1	1	15.6465	0.137279	0.137418	-0.035586	1	-0.000105671	13	-4.89017e-06
2	0	0	1	1	15.7865	0.123274	0.123471	-0.034144	1	-0.000110555	13	-4.21578e-06
2	0	0	1	1	15.9267	0.10927	0.109457	-0.0326838	1	-0.000115241	13	-3.57746e-06
2	0	0	1	1	16.0667	0.0952651	0.0954337	-0.0312766	1	-0.000119718	13	-2.98484e-06
2	0	0	1	1	16.2067	0.0812606	0.0814243	-0.0299841	1	-0.000124008	13	-2.44143e-06
2	0	0	1	1	16.3467	0.0672561	0.0674095	-0.0288467	1	-0.000128127	13	-1.94454e-06
2	0	0	1	1	16.4869	0.0532515	0.0533693	-0.0278044	1	-0.0001321	13	-1.4839e-06
2	0	0	1	1	16.6269	0.039247	0.039449	-0.0269718	1	-0.000135937	13	-1.06401e-06
2	0	0	1	1	16.7669	0.0252425	0.0254109	-0.0262356	1	-0.000139663	13	-6.6667e-07
2	0	0	1	1	16.9069	0.0112379	0.0113888	-0.0256308	1	-0.000143296	13	-2.91903e-07
2	0	0	0	1	17.019	-1.57199e-05	0.000227909	-0.0252448	1	-0.000146148	13	-5.75353e-09

File: 2025-02-10 exp 9 CV 500mvs_C05.mpt
EC-Lab ASCII FILE
Nb header lines : 59

Cyclic Voltammetry

Run on channel : 5 (SN 39658)
User :
CE vs. WE compliance from -10 V to 10 V
Electrode connection : standard
Potential control : Ewe
Ewe ctrl range : min = -2.50 V, max = 2.50 V
Safety Limits :
	Do not start on E overload
Acquisition started on : 02/10/2025 12:59:58.486
Loaded Setting File :  NONE
Saved on :
	File : 2025-02-10 exp 9 CV 500mvs_C05.mpr
	Directory : C:\Users\thefo\OneDrive\Documents\EC-Lab\Data\CHEM 451\
	Host : 172.24.113.132
Device : VSP (SN 1910)
Address : USB
EC-Lab for windows v11.46 (software)
Internet server v11.40 (firmware)
Command interpretor v11.40 (firmware)
Electrode material : Au/Pd
Initial state :
Electrolyte : NaCl (0.2M)
Comments : Fe(CN)63-/Fe(CN)64- 5.10-3 M
Current amplifier : VSPB-4A
Reference electrode : SCE Saturated Calomel Electrode (0.241 V)
Electrode surface area : 0.001 cm²
Characteristic mass : 0.001 g
Equivalent Weight : 0.000 g/eq.
Density : 0.000 g/cm3
Volume (V) : 0.001 cm³
Cycle Definition : Charge/Discharge alternance
Ei (V)              0.000
vs.                 Eoc
dE/dt               500.000
dE/dt unit          mV/s
E1 (V)              -0.200
vs.                 Ref
Step percent        50
N                   10
E range min (V)     -2.500
E range max (V)     2.500
I Range             Auto
I Range min         Unset
I Range max         Unset
I Range init        Unset
Bandwidth           4
E2 (V)              0.500
vs.                 Ref
nc cycles           0
Reverse Scan        1
Ef (V)              0.000
vs.                 Ref

mode	ox/red	error	control changes	counter inc.	time/s	control/V	Ewe/V	<I>/mA	cycle number	(Q-Qo)/C	I Range	P/W
2	1	0	0	0	0.000000000000000E+000	0.298281	0.298268	7.95456e-05	1	0.0000000E+000	14	2.37259e-08
2	0	0	1	0	0.0253	0.285727	0.286152	-0.00983361	1	-1.53718e-07	14	-2.81391e-06
2	0	0	1	0	0.0813	0.257718	0.257934	-0.0241165	1	-9.85614e-07	13	-6.22044e-06
2	0	0	1	0	0.1073	0.244714	0.244918	-0.0323063	1	-1.71862e-06	13	-7.9124e-06
2	0	0	1	0	0.1333	0.231709	0.232012	-0.0416443	1	-2.68017e-06	13	-9.66198e-06
2	0	0	1	0	0.1593	0.218705	0.218956	-0.0517506	1	-3.89586e-06	13	-1.13311e-05
2	0	0	1	0	0.1853	0.205701	0.205934	-0.0617231	1	-5.37456e-06	13	-1.27109e-05
2	0	0	1	0	0.2113	0.192697	0.192973	-0.0706059	1	-7.09989e-06	13	-1.36251e-05
2	0	0	1	0	0.2373	0.179692	0.179894	-0.0773599	1	-9.02947e-06	13	-1.39166e-05
2	0	0	1	0	0.2633	0.166688	0.166933	-0.0816059	1	-1.11023e-05	13	-1.36227e-05
2	0	0	1	0	0.2893	0.153684	0.153892	-0.0833794	1	-1.32521e-05	13	-1.28315e-05
2	0	0	1	0	0.3153	0.14068	0.140866	-0.0832066	1	-1.54212e-05	13	-1.1721e-05
2	0	0	1	0	0.3413	0.127676	0.127881	-0.0818855	1	-1.75688e-05	13	-1.04716e-05
2	0	0	1	0	0.3673	0.114671	0.114858	-0.0799208	1	-1.96727e-05	13	-9.17954e-06
2	0	0	1	0	0.3933	0.101667	0.10189	-0.07787	1	-2.17243e-05	13	-7.93421e-06
2	0	0	1	0	0.4193	0.088663	0.0888751	-0.0759199	1	-2.37233e-05	13	-6.74739e-06
2	0	0	1	0	0.4453	0.0756588	0.0758735	-0.0741889	1	-2.56741e-05	13	-5.62897e-06
2	0	0	1	0	0.4713	0.0626546	0.0628115	-0.0726727	1	-2.75824e-05	13	-4.56468e-06
2	0	0	1	0	0.4973	0.0496504	0.0498683	-0.0713701	1	-2.9454e-05	13	-3.55911e-06
2	0	0	1	0	0.5233	0.0366462	0.0368476	-0.0702414	1	-3.12943e-05	13	-2.58823e-06
2	0	0	1	0	0.5493	0.0236419	0.0238026	-0.0692837	1	-3.31078e-05	13	-1.64913e-06
2	0	0	1	0	0.5753	0.0106377	0.0108944	-0.0684828	1	-3.48987e-05	13	-7.46078e-07
2	0	0	1	0	0.6013	-0.00236648	-0.00215173	-0.0678009	1	-3.66702e-05	13	1.45889e-07
2	0	0	1	0	0.6275	-0.0153707	-0.0152329	-0.0672208	1	-3.84387e-05	13	1.02396e-06
2	0	0	1	0	0.6535	-0.0283749	-0.0282068	-0.0666957	1	-4.01793e-05	13	1.88128e-06
2	0	0	1	0	0.6795	-0.0413791	-0.0412371	-0.0663128	1	-4.19082e-05	13	2.73455e-06
2	0	0	1	0	0.7055	-0.0543833	-0.0542779	-0.065949	1	-4.3627e-05	13	3.57957e-06
2	0	0	1	0	0.7315	-0.0673876	-0.067254	-0.0656389	1	-4.53373e-05	13	4.41448e-06
2	0	0	1	0	0.7575	-0.0803918	-0.0802831	-0.0653899	1	-4.70407e-05	13	5.24971e-06
2	0	0	1	0	0.7835	-0.093396	-0.093272	-0.0651741	1	-4.87385e-05	13	6.07892e-06
2	0	0	1	0	0.8095	-0.1064	-0.10628	-0.0650552	1	-5.0432e-05	13	6.91406e-06
2	0	0	1	0	0.8355	-0.119404	-0.119294	-0.0649711	1	-5.2122e-05	13	7.75068e-06
2	0	0	1	0	0.8615	-0.132409	-0.132308	-0.0649328	1	-5.381e-05	13	8.59116e-06
2	0	0	1	0	0.8875	-0.145413	-0.145298	-0.0649163	1	-5.54972e-05	13	9.43223e-06
2	0	0	1	0	0.9135	-0.158417	-0.158293	-0.0649311	1	-5.71845e-05	13	1.02781e-05
2	0	0	1	0	0.9395	-0.171421	-0.171296	-0.0649682	1	-5.88729e-05	13	1.11288e-05
2	0	0	1	0	0.9655	-0.184426	-0.184316	-0.0650815	1	-6.05633e-05	13	1.19956e-05
2	0	0	1	0	0.9915	-0.19743	-0.197326	-0.0651926	1	-6.22568e-05	13	1.28642e-05
2	0	0	1	0	1.0141	-0.191528	-0.191458	-0.0511636	1	-6.35601e-05	13	9.79567e-06
2	0	0	1	0	1.0401	-0.178524	-0.178404	-0.0440517	1	-6.47896e-05	13	7.85902e-06
2	0	0	1	0	1.0661	-0.165519	-0.165431	-0.0391004	1	-6.58674e-05	13	6.46844e-06
2	0	0	1	0	1.0921	-0.152515	-0.152385	-0.0352224	1	-6.68319e-05	13	5.36738e-06
2	0	0	1	0	1.1181	-0.139511	-0.139393	-0.0319115	1	-6.77038e-05	13	4.44824e-06
2	0	0	1	0	1.1441	-0.126507	-0.126352	-0.029142	1	-6.84967e-05	13	3.68217e-06
2	0	0	1	0	1.1701	-0.113502	-0.113432	-0.0266012	1	-6.92202e-05	13	3.01741e-06
2	0	0	1	0	1.1961	-0.100498	-0.100381	-0.0243798	1	-6.98821e-05	13	2.44727e-06
2	0	0	1	0	1.2221	-0.0874941	-0.087387	-0.0223001	1	-7.04877e-05	13	1.94874e-06
2	0	0	1	0	1.2481	-0.0744899	-0.0744247	-0.0203911	1	-7.10417e-05	13	1.5176e-06
2	0	0	1	0	1.2741	-0.0614856	-0.0613468	-0.0186421	1	-7.1548e-05	13	1.14363e-06
2	0	0	1	0	1.3001	-0.0484814	-0.0483601	-0.0169731	1	-7.20096e-05	13	8.20822e-07
2	0	0	1	0	1.3261	-0.0354772	-0.0353787	-0.0154327	1	-7.24294e-05	13	5.45989e-07
2	0	0	1	0	1.3521	-0.022473	-0.0223835	-0.0139197	1	-7.28095e-05	13	3.1157e-07
2	0	0	1	0	1.3783	-0.00946878	-0.00934158	-0.0124998	1	-7.31549e-05	13	1.16768e-07
2	0	0	1	0	1.4043	0.00353543	0.00369499	-0.0110772	1	-7.34605e-05	13	-4.09301e-08
2	0	0	1	0	1.4303	0.0165396	0.0167209	-0.00971628	1	-7.37307e-05	13	-1.62465e-07
2	0	0	1	0	1.4563	0.0295439	0.0297692	-0.00837684	1	-7.39662e-05	13	-2.49372e-07
2	0	0	1	0	1.4823	0.0425481	0.0426891	-0.00703986	1	-7.41673e-05	13	-3.00525e-07
2	0	0	1	0	1.5083	0.0555523	0.0557437	-0.0056905	1	-7.43332e-05	13	-3.17209e-07
2	0	0	1	0	1.5343	0.0685565	0.068759	-0.00422256	1	-7.44627e-05	13	-2.90339e-07
2	0	0	1	0	1.5603	0.0815607	0.0817351	-0.00271854	1	-7.45532e-05	13	-2.222e-07
2	0	0	1	0	1.5863	0.0945649	0.0947717	-0.000912631	1	-7.46006e-05	13	-8.64916e-08
2	1	0	1	0	1.6123	0.107569	0.107745	0.00108634	1	-7.45989e-05	13	1.17047e-07
2	1	0	1	0	1.6383	0.120573	0.12073	0.00361319	1	-7.45378e-05	13	4.36221e-07
2	1	0	1	0	1.6643	0.133578	0.133746	0.00675872	1	-7.44041e-05	13	9.03948e-07
2	1	0	1	0	1.6903	0.146582	0.146752	0.010722	1	-7.41784e-05	13	1.57348e-06
2	1	0	1	0	1.7163	0.159586	0.159715	0.0157771	1	-7.38358e-05	13	2.51983e-06
2	1	0	1	0	1.7423	0.17259	0.1728	0.022094	1	-7.33455e-05	13	3.81784e-06
2	1	0	1	0	1.7683	0.185594	0.185777	0.0297616	1	-7.26735e-05	13	5.52902e-06
2	1	0	1	0	1.7943	0.198599	0.19873	0.038402	1	-7.17881e-05	13	7.63163e-06
2	1	0	1	0	1.8203	0.211603	0.211741	0.0476379	1	-7.0668e-05	13	1.00869e-05
2	1	0	1	0	1.8463	0.224607	0.22476	0.0564928	1	-6.9311e-05	13	1.26973e-05
2	1	0	1	0	1.8723	0.237611	0.237811	0.0639467	1	-6.77399e-05	13	1.52072e-05
[...]
2	1	0	1	0	2.1845	0.393662	0.393901	0.0544518	1	-4.74828e-05	13	2.14486e-05
2	1	0	1	0	2.2105	0.406666	0.406896	0.0531574	1	-4.60844e-05	13	2.16295e-05
2	1	0	1	0	2.2365	0.41967	0.419892	0.0520524	1	-4.47172e-05	13	2.18564e-05
2	1	0	1	0	2.2625	0.432674	0.432907	0.0510137	1	-4.33779e-05	13	2.20842e-05
2	1	0	1	0	2.2885	0.445679	0.445909	0.0501613	1	-4.20629e-05	13	2.23674e-05
2	1	0	1	0	2.3145	0.458683	0.458923	0.0493843	1	-4.07698e-05	13	2.26636e-05
2	1	0	1	0	2.3405	0.471687	0.47188	0.0486734	1	-3.94958e-05	13	2.2968e-05
2	1	0	1	0	2.3665	0.484691	0.484919	0.0480797	1	-3.82388e-05	13	2.33148e-05
2	1	0	1	0	2.3925	0.497695	0.497904	0.047523	1	-3.69963e-05	13	2.36619e-05
2	1	0	1	1	2.4147	0.491393	0.491627	0.035945	1	-3.60857e-05	13	1.76716e-05
2	1	0	1	1	2.4407	0.478389	0.478593	0.0301989	1	-3.52316e-05	13	1.4453e-05
2	1	0	1	1	2.4667	0.465385	0.465604	0.0261039	1	-3.4502e-05	13	1.21541e-05
2	1	0	1	1	2.4927	0.452381	0.452598	0.0227769	1	-3.38678e-05	13	1.03088e-05
2	1	0	1	1	2.5187	0.439377	0.439631	0.0199637	1	-3.33133e-05	13	8.77666e-06
2	1	0	1	1	2.5447	0.426372	0.426554	0.017406	1	-3.28283e-05	13	7.42458e-06
2	1	0	1	1	2.5707	0.413368	0.413568	0.0151078	1	-3.24057e-05	13	6.2481e-06
2	1	0	1	1	2.5967	0.400364	0.400576	0.0129649	1	-3.20406e-05	13	5.19344e-06
2	1	0	1	1	2.6227	0.38736	0.387568	0.0109403	1	-3.17295e-05	13	4.24011e-06
2	1	0	1	1	2.6487	0.374355	0.374541	0.00898805	1	-3.14707e-05	13	3.3664e-06
2	1	0	1	1	2.6747	0.361351	0.361531	0.00696872	1	-3.12634e-05	13	2.51941e-06
2	1	0	1	1	2.7007	0.348347	0.348585	0.0049598	1	-3.11085e-05	13	1.72891e-06
2	1	0	1	1	2.7267	0.335343	0.335552	0.00273099	1	-3.10089e-05	13	9.1639e-07
2	1	0	1	1	2.7527	0.322339	0.32254	0.000308134	1	-3.09693e-05	13	9.93857e-08
2	0	0	1	1	2.7787	0.309334	0.309541	-0.00248594	1	-3.09975e-05	13	-7.69501e-07
2	0	0	1	1	2.8049	0.29633	0.296523	-0.0057672	1	-3.11056e-05	13	-1.71011e-06
2	0	0	1	1	2.8309	0.283326	0.283598	-0.00992526	1	-3.13091e-05	13	-2.81479e-06
2	0	0	1	1	2.8569	0.270322	0.270557	-0.0151411	1	-3.16338e-05	13	-4.09654e-06
2	0	0	1	1	2.8829	0.257318	0.257528	-0.0216022	1	-3.21103e-05	13	-5.56318e-06
2	0	0	1	1	2.9089	0.244313	0.244557	-0.029541	1	-3.27741e-05	13	-7.22446e-06
2	0	0	1	1	2.9349	0.231309	0.23154	-0.0386944	1	-3.36609e-05	13	-8.95929e-06
2	0	0	1	1	2.9609	0.218305	0.218579	-0.0486524	1	-3.47971e-05	13	-1.06344e-05
2	0	0	1	1	2.9869	0.205301	0.205537	-0.0583418	1	-3.61904e-05	13	-1.19914e-05
2	0	0	1	1	3.0129	0.192297	0.192575	-0.0668634	1	-3.78227e-05	13	-1.28762e-05
2	0	0	1	1	3.0389	0.179292	0.179544	-0.0732293	1	-3.96496e-05	13	-1.31479e-05
2	0	0	1	1	3.0649	0.166288	0.166496	-0.077075	1	-4.16094e-05	13	-1.28327e-05
2	0	0	1	1	3.0909	0.153284	0.153502	-0.0784861	1	-4.36363e-05	13	-1.20478e-05
2	0	0	1	1	3.1169	0.14028	0.140421	-0.0779986	1	-4.56739e-05	13	-1.09526e-05
2	0	0	1	1	3.1429	0.127275	0.127451	-0.0764855	1	-4.76844e-05	13	-9.74816e-06
2	0	0	1	1	3.1689	0.114271	0.114485	-0.0744649	1	-4.96474e-05	13	-8.52509e-06
2	0	0	1	1	3.1949	0.101267	0.101433	-0.0723728	1	-5.15563e-05	13	-7.34101e-06
2	0	0	1	1	3.2209	0.0882629	0.088439	-0.0704089	1	-5.34114e-05	13	-6.22689e-06
2	0	0	1	1	3.2469	0.0752586	0.0754683	-0.0686306	1	-5.5218e-05	13	-5.17943e-06
2	0	0	1	1	3.2729	0.0622544	0.0624571	-0.0670927	1	-5.69816e-05	13	-4.19042e-06
2	0	0	1	1	3.2989	0.0492502	0.0494291	-0.0657564	1	-5.87083e-05	13	-3.25028e-06
2	0	0	1	1	3.3249	0.036246	0.0364318	-0.0646295	1	-6.0403e-05	13	-2.35457e-06
2	0	0	1	1	3.3509	0.0232418	0.0234355	-0.0636508	1	-6.20701e-05	13	-1.49169e-06
2	0	0	1	1	3.3769	0.0102376	0.0104658	-0.0628104	1	-6.37138e-05	13	-6.57359e-07
2	0	0	1	1	3.3976	-0.000115752	0.000132426	-0.0622276	1	-6.50076e-05	13	-8.24058e-09