Folder: EC-Lab-Processing/Data_1mg

File: 2022_01_25 Co30Ni60Fe10Nx 1mg  ref309 elect1 cv and bulk_01_CV_C02.mpt
EC-Lab ASCII FILE
Nb header lines : 57

Cyclic Voltammetry

Run on channel : 2 (SN 12477)
User :
CE vs. WE compliance from -10 V to 10 V
Electrode connection : standard
Potential control : Ewe
Ewe ctrl range : min = -2.50 V, max = 2.50 V
Safety Limits :
	Do not start on E overload
Acquisition started on : 01/25/2023 16:18:45.043
Loaded Setting File :  C:\Users\grupogalan\Documents\EC-Lab\Data\Scott\_cyclic_pause_cp2hr.mps
Saved on :
	File : 2022_01_25 Co30Ni60Fe10Nx 1mg  ref309 elect1 cv and bulk_01_CV_C02.mpr
	Directory : C:\Users\grupogalan\Documents\EC-Lab\Data\Scott\
	Host : 169.254.104.159
Device : VSP (SN 1176)
Address : USB
EC-Lab for windows v11.46 (software)
Internet server v11.40 (firmware)
Command interpretor v11.40 (firmware)
Electrode material :
Initial state :
Electrolyte :
Comments :
Electrode surface area : 0.000 cm²
Characteristic mass : 0.001 g
Equivalent Weight : 0.000 g/eq.
Density : 0.000 g/cm3
Volume (V) : 0.001 cm³
Cycle Definition : Charge/Discharge alternance
Ei (V)              0.000
vs.                 Eoc
dE/dt               10.000
dE/dt unit          mV/s
E1 (V)              1.000
vs.                 Ref
Step percent        50
N                   10
E range min (V)     -2.500
E range max (V)     2.500
I Range             Auto
I Range min         Unset
I Range max         Unset
I Range init        Unset
Bandwidth           5
E2 (V)              0.000
vs.                 Ref
nc cycles           2
Reverse Scan        1
Ef (V)              0.000
vs.                 Eoc

mode	ox/red	error	control changes	counter inc.	time/s	control/V	Ewe/V	<I>/mA	cycle number	(Q-Qo)/C	I Range	P/W
2	0	0	1	0	0.000000000000000E+000	0.346451	0.348005	-0.00517076	1	0.0000000E+000	13	-1.79945e-06
2	1	0	1	0	4.2559	0.38901	0.388219	0.0283435	1	7.23047e-05	13	1.10035e-05
2	1	0	1	0	8.557	0.432021	0.431584	0.0518701	1	0.000246482	13	2.23863e-05
2	1	0	0	0	12.858	0.475031	0.474052	0.0764625	1	0.000526696	13	3.62472e-05
2	1	0	1	0	17.189	0.518341	0.515967	0.0976392	1	0.000908315	12	5.03787e-05
2	1	0	0	0	21.49	0.561351	0.559468	0.118314	1	0.001374	12	6.61929e-05
2	1	0	1	0	25.791	0.604361	0.604278	0.166875	1	0.00196726	12	0.000100839
2	1	0	0	0	30.092	0.647371	0.646234	0.360724	1	0.00302577	12	0.000233112
2	1	0	1	0	34.393	0.690381	0.689915	0.858383	1	0.0055151	12	0.000592211
2	1	0	0	0	38.724	0.733691	0.735354	1.85649	1	0.0111829	11	0.00136518
2	1	0	1	0	43.025	0.776702	0.776383	3.61178	1	0.0226109	11	0.00280412
2	1	0	0	0	47.326	0.819712	0.819158	6.49684	1	0.043905	11	0.00532194
2	1	0	1	0	51.627	0.862722	0.861183	10.6687	1	0.0803967	11	0.00918773
2	1	0	0	0	55.958	0.906032	0.905842	16.0219	1	0.137882	10	0.0145133
2	1	0	1	0	60.259	0.949042	0.949479	22.0368	1	0.219678	10	0.0209235
2	1	0	0	0	64.56	0.992052	0.992812	27.9431	1	0.327509	10	0.0277423
2	1	0	0	0	68.7116	0.966446	0.966387	21.4663	1	0.433686	10	0.0207447
2	1	0	1	0	73.0126	0.923436	0.924046	14.9557	1	0.511074	10	0.0138198
2	1	0	0	0	77.3136	0.880426	0.881414	10.2476	1	0.564732	10	0.00903235
2	1	0	1	0	81.6146	0.837416	0.837178	6.72709	1	0.60083	10	0.00563177
2	1	0	0	0	85.9456	0.794105	0.794944	4.12962	1	0.624019	11	0.00328282
2	1	0	1	0	90.2466	0.751096	0.750266	2.37756	1	0.637738	11	0.0017838
2	1	0	0	0	94.5476	0.708085	0.708118	1.25698	1	0.645349	11	0.000890089
2	1	0	1	0	98.8486	0.665075	0.664213	0.58479	1	0.649171	11	0.000388425
2	1	0	0	0	103.18	0.621765	0.62204	0.216904	1	0.650808	12	0.000134923
2	1	0	1	0	107.481	0.578755	0.579957	0.0525529	1	0.651331	12	3.04784e-05
2	1	0	0	0	111.782	0.535745	0.536008	-0.00784964	1	0.651401	12	-4.20747e-06
2	0	0	1	0	116.083	0.492735	0.48986	-0.0302294	1	0.651308	12	-1.48082e-05
2	0	0	0	0	120.384	0.449725	0.450508	-0.0420418	1	0.651147	12	-1.89402e-05
2	0	0	1	0	124.685	0.406715	0.407155	-0.0503755	1	0.650945	12	-2.05106e-05
2	0	0	1	0	128.986	0.363704	0.363309	-0.059948	1	0.650706	12	-2.17796e-05
2	0	0	1	0	133.287	0.320695	0.319968	-0.0697196	1	0.650423	12	-2.2308e-05
2	0	0	1	0	137.588	0.277684	0.27627	-0.0688955	1	0.650115	12	-1.90337e-05
2	0	0	0	0	141.889	0.234674	0.236308	-0.0552279	1	0.649846	12	-1.30508e-05
2	0	0	1	0	146.19	0.191664	0.192169	-0.0447791	1	0.649631	12	-8.60517e-06
2	0	0	0	0	150.491	0.148654	0.148168	-0.0392319	1	0.64945	12	-5.8129e-06
2	0	0	1	0	154.792	0.105644	0.10632	-0.0357715	1	0.649288	12	-3.80323e-06
2	0	0	0	0	159.093	0.062634	0.0618589	-0.0331977	1	0.649139	12	-2.05358e-06
2	0	0	1	0	163.394	0.0196239	0.0191278	-0.0307569	1	0.649	12	-5.88313e-07
2	0	0	0	1	167.515	0.0215243	0.019952	-0.0250547	1	0.648881	12	-4.9989e-07
2	0	0	1	1	171.816	0.0645344	0.0650824	-0.0193238	1	0.648789	12	-1.25764e-06
2	0	0	1	1	176.117	0.107545	0.107327	-0.0154218	1	0.648716	12	-1.65518e-06
2	0	0	1	1	180.418	0.150555	0.149992	-0.0126298	1	0.648658	12	-1.89438e-06
2	0	0	1	1	184.719	0.193565	0.193931	-0.00981611	1	0.648611	12	-1.90365e-06
2	0	0	0	1	189.02	0.236575	0.235664	-0.00700686	1	0.648577	12	-1.65127e-06
2	1	0	1	1	193.321	0.279585	0.279153	-0.00341239	1	0.648555	12	-9.52579e-07
2	0	0	0	1	197.622	0.322595	0.322975	0.00231688	1	0.648553	12	7.48296e-07
2	1	0	1	1	201.743	0.363805	0.363825	0.0157988	2	0.648589	12	5.748e-06
2	1	0	0	1	206.044	0.406815	0.407276	0.0448589	2	0.648715	12	1.82699e-05
2	1	0	1	1	210.345	0.449825	0.449355	0.0771478	2	0.648983	12	3.46667e-05
2	1	0	0	1	214.646	0.492835	0.49203	0.101044	2	0.649373	12	4.97168e-05
2	1	0	1	1	218.947	0.535845	0.53454	0.117421	2	0.649848	12	6.2766e-05
2	1	0	0	1	223.248	0.578855	0.578469	0.134115	2	0.650389	12	7.75813e-05
2	1	0	1	1	227.549	0.621865	0.621377	0.211683	2	0.651089	12	0.000131535
2	1	0	0	1	231.85	0.664875	0.664202	0.520445	2	0.652553	12	0.00034568
2	1	0	1	1	236.181	0.708185	0.708343	1.25023	2	0.656209	11	0.000885589
2	1	0	0	1	240.482	0.751195	0.750964	2.57765	2	0.664193	11	0.00193572
2	1	0	1	1	244.783	0.794205	0.793759	4.75572	2	0.679613	11	0.00377489
2	1	0	0	1	249.084	0.837216	0.837271	7.99088	2	0.706653	11	0.00669053
2	1	0	1	1	253.415	0.880526	0.88009	12.2166	2	0.750128	10	0.0107517
2	1	0	0	1	257.716	0.923536	0.923215	17.029	2	0.812937	10	0.0157214
2	1	0	1	1	262.017	0.966546	0.966501	22.0895	2	0.89719	10	0.0213495
2	1	0	1	1	266.219	0.991452	0.991808	24.1491	2	0.998902	10	0.0239513
2	1	0	0	1	270.52	0.948442	0.947929	17.4122	2	1.08731	10	0.0165056
2	1	0	1	1	274.821	0.905432	0.905312	12.4937	2	1.1511	10	0.0113107
2	1	0	0	1	279.122	0.862422	0.863076	8.71038	2	1.19635	10	0.00751772
2	1	0	1	1	283.423	0.819411	0.819694	5.70756	2	1.22706	10	0.00467845
2	1	0	0	1	287.754	0.776101	0.775422	3.44451	2	1.2466	11	0.00267095
2	1	0	1	1	292.055	0.733091	0.732543	1.91493	2	1.25788	11	0.00140277
2	1	0	0	1	296.356	0.690081	0.68985	0.956539	2	1.26387	11	0.000659869
2	1	0	1	1	300.687	0.646771	0.646718	0.402182	2	1.26669	12	0.000260099
2	1	0	0	1	304.988	0.603761	0.604077	0.129113	2	1.26775	12	7.79939e-05
2	1	0	1	1	309.289	0.560751	0.560072	0.0191655	2	1.26802	12	1.07341e-05
2	0	0	0	1	313.59	0.517741	0.517161	-0.0189013	2	1.268	12	-9.775e-06
2	0	0	1	1	317.891	0.474731	0.4739	-0.034622	2	1.26788	12	-1.64074e-05
2	0	0	1	1	322.192	0.43172	0.431287	-0.0438313	2	1.26771	12	-1.89039e-05
2	0	0	1	1	326.493	0.388711	0.388091	-0.0521429	2	1.2675	12	-2.02362e-05
2	0	0	1	1	330.794	0.3457	0.345376	-0.0615855	2	1.26725	12	-2.12702e-05
2	0	0	0	1	335.095	0.30269	0.302563	-0.0666532	2	1.26697	12	-2.01668e-05
2	0	0	1	1	339.396	0.25968	0.259132	-0.058937	2	1.26669	12	-1.52725e-05
[...]
2	1	0	1	0	386.528	0.211569	0.211464	-0.00852905	2	1.26532	12	-1.80359e-06
2	0	0	0	0	390.829	0.254579	0.254021	-0.00562289	2	1.26529	12	-1.42833e-06
2	1	0	1	0	395.13	0.297589	0.297813	-0.00134036	2	1.26528	12	-3.99178e-07
2	1	0	0	0	399.431	0.340599	0.340566	0.00657875	2	1.26529	12	2.2405e-06
2	1	0	1	0	403.552	0.381809	0.381934	0.0239434	3	1.26535	12	9.1448e-06
2	1	0	0	0	407.853	0.424819	0.42475	0.0554426	3	1.26552	12	2.35492e-05
2	1	0	1	0	412.154	0.467829	0.467517	0.0823403	3	1.26582	12	3.84955e-05
2	1	0	0	0	416.455	0.510839	0.509996	0.102586	3	1.26622	12	5.23183e-05
2	1	0	1	0	420.756	0.553849	0.553079	0.117446	3	1.2667	12	6.49567e-05
2	1	0	0	0	425.057	0.596859	0.596131	0.144426	3	1.26725	12	8.60969e-05
2	1	0	1	0	429.358	0.639869	0.639946	0.285564	3	1.26811	12	0.000182745
2	1	0	0	0	433.659	0.68288	0.682589	0.719543	3	1.27014	12	0.000491152
2	1	0	1	0	437.99	0.72619	0.726356	1.62907	3	1.27503	11	0.00118329
2	1	0	0	0	442.291	0.7692	0.768623	3.19532	3	1.28514	11	0.00245599
2	1	0	1	0	446.592	0.81221	0.811478	5.65427	3	1.30382	11	0.00458831
2	1	0	0	0	450.893	0.85522	0.855789	9.07945	3	1.33522	11	0.00777009
2	1	0	1	0	455.224	0.89853	0.898915	13.3137	3	1.38351	10	0.0119679
2	1	0	0	0	459.525	0.94154	0.941532	17.8631	3	1.45048	10	0.0168186
2	1	0	1	0	463.826	0.984551	0.98493	22.4443	3	1.53722	10	0.0221061
2	1	0	1	0	468.027	0.973448	0.973256	19.6016	3	1.63073	10	0.0190774
2	1	0	0	0	472.328	0.930438	0.930085	14.3187	3	1.70305	10	0.0133176
2	1	0	1	0	476.629	0.887427	0.887389	10.2827	3	1.75559	10	0.00912474
2	1	0	0	0	480.93	0.844417	0.84399	7.06246	3	1.79261	10	0.00596065
2	1	0	1	0	485.246	0.801257	0.800045	4.49863	3	1.81729	10	0.0035991
2	1	0	0	0	489.562	0.758097	0.758007	2.61633	3	1.83236	11	0.0019832
2	1	0	1	0	493.863	0.715087	0.714106	1.38874	3	1.84076	11	0.000991706
2	1	0	0	0	498.164	0.672077	0.671703	0.648025	3	1.84499	11	0.00043528
2	1	0	1	0	502.495	0.628767	0.62807	0.246159	3	1.84682	12	0.000154605
2	1	0	0	0	506.796	0.585757	0.585255	0.0652512	3	1.84743	12	3.81886e-05
2	0	0	1	0	511.097	0.542747	0.542738	-0.00115107	3	1.84754	12	-6.24727e-07
2	0	0	1	0	515.398	0.499736	0.499489	-0.0256998	3	1.84747	12	-1.28368e-05
2	0	0	1	0	519.699	0.456727	0.456324	-0.0373179	3	1.84733	12	-1.70291e-05
2	0	0	1	0	524.001	0.413716	0.413433	-0.045254	3	1.84715	12	-1.87095e-05
2	0	0	0	0	528.302	0.370706	0.371215	-0.0535556	3	1.84693	12	-1.98806e-05
2	0	0	1	0	532.603	0.327696	0.32717	-0.0617201	3	1.84668	12	-2.0193e-05
2	0	0	0	0	536.904	0.284686	0.284659	-0.0620652	3	1.84641	12	-1.76674e-05
2	0	0	1	0	541.205	0.241676	0.2412	-0.052001	3	1.84616	12	-1.25426e-05
2	0	0	0	0	545.506	0.198666	0.198748	-0.0438042	3	1.84595	12	-8.70599e-06
2	0	0	1	0	549.807	0.155656	0.155181	-0.0382941	3	1.84577	12	-5.94251e-06
2	0	0	0	0	554.108	0.112646	0.112366	-0.0350818	3	1.84562	12	-3.942e-06
2	0	0	1	0	558.409	0.0696356	0.0683992	-0.0324992	3	1.84547	12	-2.22292e-06
2	0	0	0	0	562.71	0.0266255	0.0263596	-0.0307103	3	1.84533	12	-8.09513e-07
2	0	0	1	1	566.831	0.0145222	0.0147213	-0.0260648	3	1.84521	12	-3.83707e-07
2	0	0	1	1	571.132	0.0575328	0.0569479	-0.0197948	3	1.84512	12	-1.12727e-06
2	0	0	0	1	575.433	0.100543	0.0997777	-0.0160659	3	1.84504	12	-1.60302e-06
2	0	0	1	1	579.734	0.143553	0.143702	-0.0129305	3	1.84498	12	-1.85813e-06
2	0	0	0	1	584.035	0.186563	0.186947	-0.010162	3	1.84493	12	-1.89974e-06
2	0	0	1	1	588.336	0.229573	0.22875	-0.00743538	3	1.8449	12	-1.70084e-06
2	0	0	0	1	592.637	0.272583	0.272296	-0.00425408	3	1.84488	12	-1.15837e-06
2	0	0	1	1	596.938	0.315593	0.316143	0.000972357	3	1.84487	12	3.07404e-07
2	1	0	0	1	599.993	0.346151	0.344778	0.00768249	3	1.84488	12	2.64875e-06

File: 2022_01_25 Co30Ni60Fe10Nx 1mg  ref309 elect1 cv and bulk_03_CP_C02.mpt
EC-Lab ASCII FILE
Nb header lines : 52

Chronopotentiometry

Run on channel : 2 (SN 12477)
User :
CE vs. WE compliance from -10 V to 10 V
Electrode connection : standard
Potential control : Ewe
Ewe ctrl range : min = -2.50 V, max = 2.50 V
Safety Limits :
	Do not start on E overload
Acquisition started on : 01/25/2023 16:18:45.043
Loaded Setting File :  C:\Users\grupogalan\Documents\EC-Lab\Data\Scott\_cyclic_pause_cp2hr.mps
Saved on :
	File : 2022_01_25 Co30Ni60Fe10Nx 1mg  ref309 elect1 cv and bulk_03_CP_C02.mpr
	Directory : C:\Users\grupogalan\Documents\EC-Lab\Data\Scott\
	Host : 169.254.104.159
Device : VSP (SN 1176)
Address : USB
EC-Lab for windows v11.46 (software)
Internet server v11.40 (firmware)
Command interpretor v11.40 (firmware)
Electrode material :
Initial state :
Electrolyte :
Comments :
Electrode surface area : 0.000 cm²
Characteristic mass : 0.001 g
Equivalent Weight : 0.000 g/eq.
Density : 0.000 g/cm3
Volume (V) : 0.001 cm³
Cycle Definition : Charge/Discharge alternance
Is                  10.000
unit Is             mA
vs.                 <None>
ts (h:m:s)          2:00:0.0000
EM (V)              pass
dQM                 20.000
unit dQM            mA.h
record              <Ewe>
dEs (mV)            0.00
dts (s)             1.0000
E range min (V)     -2.500
E range max (V)     2.500
I Range             10 mA
Bandwidth           5
goto Ns'            0
nc cycles           0

mode	ox/red	error	control changes	Ns changes	counter inc.	Ns	time/s	control/mA	<Ewe>/V	I/mA	dQ/C	(Q-Qo)/C	half cycle	Q charge/discharge/mA.h	I Range	Energy charge/W.h	Energy discharge/W.h	Capacitance charge/µF	Capacitance discharge/µF	Q discharge/mA.h	Q charge/mA.h	Capacity/mA.h	Efficiency/%	cycle number	P/W
1	1	0	1	0	0	0	905.592	10	0.895718	10.0016	0.00947732	0.00947732	0	0.00263259	11	2.35806e-06	0.000000000000000E+000	0.000000000000000E+000	0.000000000000000E+000	0.000000000000000E+000	0.00263259	0.00263259	0.0000000E+000	0.000000000000000E+000	0.00895857
1	1	0	1	0	0	0	1064.59	10	0.934976	10.0014	1.59971	1.59971	0	0.444363	11	0.0004105	0.000000000000000E+000	4.07485e+07	0.000000000000000E+000	0.000000000000000E+000	0.444363	0.444363	0.0000000E+000	0.000000000000000E+000	0.0093511
1	1	0	1	0	0	0	1223.59	10	0.957741	10.0012	3.18993	3.18993	0	0.886092	11	0.000828472	0.000000000000000E+000	5.14309e+07	0.000000000000000E+000	0.000000000000000E+000	0.886092	0.886092	0.0000000E+000	0.000000000000000E+000	0.0095786
1	1	0	1	0	0	0	1382.59	10	0.983325	10.001	4.78016	4.78016	0	1.32782	11	0.00125713	0.000000000000000E+000	5.45635e+07	0.000000000000000E+000	0.000000000000000E+000	1.32782	1.32782	0.0000000E+000	0.000000000000000E+000	0.00983428
1	1	0	1	0	0	0	1541.59	10	1.00877	10.0006	6.37038	6.37038	0	1.76955	11	0.00169712	0.000000000000000E+000	5.63477e+07	0.000000000000000E+000	0.000000000000000E+000	1.76955	1.76955	0.0000000E+000	0.000000000000000E+000	0.0100883
1	1	0	1	0	0	0	1700.59	10	1.03349	10.0019	7.96061	7.96061	0	2.21128	11	0.00214833	0.000000000000000E+000	5.77802e+07	0.000000000000000E+000	0.000000000000000E+000	2.21128	2.21128	0.0000000E+000	0.000000000000000E+000	0.0103369
1	1	0	1	0	0	0	1859.59	10	1.05513	10.0009	9.55083	9.55083	0	2.65301	11	0.00260983	0.000000000000000E+000	5.9912e+07	0.000000000000000E+000	0.000000000000000E+000	2.65301	2.65301	0.0000000E+000	0.000000000000000E+000	0.0105522
1	1	0	1	0	0	0	2018.59	10	1.07333	10.0014	11.1411	11.1411	0	3.09474	11	0.00308	0.000000000000000E+000	6.27261e+07	0.000000000000000E+000	0.000000000000000E+000	3.09474	3.09474	0.0000000E+000	0.000000000000000E+000	0.0107348
1	1	0	1	0	0	0	2177.59	10	1.09121	10.0016	12.7313	12.7313	0	3.53647	11	0.00355807	0.000000000000000E+000	6.51228e+07	0.000000000000000E+000	0.000000000000000E+000	3.53647	3.53647	0.0000000E+000	0.000000000000000E+000	0.0109138
1	1	0	1	0	0	0	2336.59	10	1.11279	10.0019	14.3215	14.3215	0	3.9782	11	0.0040446	0.000000000000000E+000	6.59762e+07	0.000000000000000E+000	0.000000000000000E+000	3.9782	3.9782	0.0000000E+000	0.000000000000000E+000	0.01113
1	1	0	1	0	0	0	2495.59	10	1.14814	10.0016	15.9117	15.9117	0	4.41993	11	0.00454329	0.000000000000000E+000	6.30352e+07	0.000000000000000E+000	0.000000000000000E+000	4.41993	4.41993	0.0000000E+000	0.000000000000000E+000	0.0114833
1	1	0	1	0	0	0	2654.59	10	1.19761	10.0012	17.502	17.502	0	4.86166	11	0.00506157	0.000000000000000E+000	5.79739e+07	0.000000000000000E+000	0.000000000000000E+000	4.86166	4.86166	0.0000000E+000	0.000000000000000E+000	0.0119775
1	1	0	1	0	0	0	2813.59	10	1.23118	10.001	19.0922	19.0922	0	5.30339	11	0.00559862	0.000000000000000E+000	5.69137e+07	0.000000000000000E+000	0.000000000000000E+000	5.30339	5.30339	0.0000000E+000	0.000000000000000E+000	0.012313
1	1	0	1	0	0	0	2972.59	10	1.258	10.0012	20.6824	20.6824	0	5.74512	11	0.00614869	0.000000000000000E+000	5.7089e+07	0.000000000000000E+000	0.000000000000000E+000	5.74512	5.74512	0.0000000E+000	0.000000000000000E+000	0.0125816
1	1	0	1	0	0	0	3131.59	10	1.27968	10.0017	22.2726	22.2726	0	6.18685	11	0.00670938	0.000000000000000E+000	5.8008e+07	0.000000000000000E+000	0.000000000000000E+000	6.18685	6.18685	0.0000000E+000	0.000000000000000E+000	0.0127989
1	1	0	1	0	0	0	3290.59	10	1.29949	10.0016	23.8629	23.8629	0	6.62858	11	0.00727915	0.000000000000000E+000	5.91005e+07	0.000000000000000E+000	0.000000000000000E+000	6.62858	6.62858	0.0000000E+000	0.000000000000000E+000	0.0129969
1	1	0	1	0	0	0	3449.59	10	1.31755	10.0016	25.4531	25.4531	0	7.07031	11	0.00785715	0.000000000000000E+000	6.0339e+07	0.000000000000000E+000	0.000000000000000E+000	7.07031	7.07031	0.0000000E+000	0.000000000000000E+000	0.0131777
1	1	0	1	0	0	0	3608.59	10	1.33385	10.0013	27.0433	27.0433	0	7.51204	11	0.00844274	0.000000000000000E+000	6.17246e+07	0.000000000000000E+000	0.000000000000000E+000	7.51204	7.51204	0.0000000E+000	0.000000000000000E+000	0.0133402
1	1	0	1	0	0	0	3767.59	10	1.34982	10.0012	28.6336	28.6336	0	7.95377	11	0.00903557	0.000000000000000E+000	6.30556e+07	0.000000000000000E+000	0.000000000000000E+000	7.95377	7.95377	0.0000000E+000	0.000000000000000E+000	0.0134999
1	1	0	1	0	0	0	3926.59	10	1.36728	10.0017	30.2238	30.2238	0	8.3955	11	0.0096356	0.000000000000000E+000	6.40923e+07	0.000000000000000E+000	0.000000000000000E+000	8.3955	8.3955	0.0000000E+000	0.000000000000000E+000	0.0136751
1	1	0	1	0	0	0	4085.59	10	1.38314	10.0014	31.814	31.814	0	8.83723	11	0.0102431	0.000000000000000E+000	6.52703e+07	0.000000000000000E+000	0.000000000000000E+000	8.83723	8.83723	0.0000000E+000	0.000000000000000E+000	0.0138334
1	1	0	1	0	0	0	4244.59	10	1.40251	10.0011	33.4043	33.4043	0	9.27896	11	0.0108585	0.000000000000000E+000	6.59129e+07	0.000000000000000E+000	0.000000000000000E+000	9.27896	9.27896	0.0000000E+000	0.000000000000000E+000	0.0140267
1	1	0	1	0	0	0	4403.59	10	1.42516	10.0021	34.9945	34.9945	0	9.72069	11	0.0114829	0.000000000000000E+000	6.60963e+07	0.000000000000000E+000	0.000000000000000E+000	9.72069	9.72069	0.0000000E+000	0.000000000000000E+000	0.0142547
1	1	0	1	0	0	0	4562.59	10	1.44834	10.0018	36.5847	36.5847	0	10.1624	11	0.0121174	0.000000000000000E+000	6.62018e+07	0.000000000000000E+000	0.000000000000000E+000	10.1624	10.1624	0.0000000E+000	0.000000000000000E+000	0.014486
[...]
1	1	0	1	0	0	0	5675.59	10	1.71132	10.0014	47.7163	47.7163	0	13.2545	11	0.0170093	0.000000000000000E+000	5.85042e+07	0.000000000000000E+000	0.000000000000000E+000	13.2545	13.2545	0.0000000E+000	0.000000000000000E+000	0.0171157
1	1	0	1	0	0	0	5834.59	10	1.73527	10.0016	49.3065	49.3065	0	13.6963	11	0.0177709	0.000000000000000E+000	5.87298e+07	0.000000000000000E+000	0.000000000000000E+000	13.6963	13.6963	0.0000000E+000	0.000000000000000E+000	0.0173554
1	1	0	1	0	0	0	5993.59	10	1.76771	10.0012	50.8968	50.8968	0	14.138	11	0.0185439	0.000000000000000E+000	5.83686e+07	0.000000000000000E+000	0.000000000000000E+000	14.138	14.138	0.0000000E+000	0.000000000000000E+000	0.0176793
1	1	0	1	0	0	0	6152.59	10	1.8066	10.0011	52.487	52.487	0	14.5797	11	0.0193329	0.000000000000000E+000	5.76223e+07	0.000000000000000E+000	0.000000000000000E+000	14.5797	14.5797	0.0000000E+000	0.000000000000000E+000	0.018068
1	1	0	1	0	0	0	6311.59	10	1.84514	10.0014	54.0772	54.0772	0	15.0215	11	0.0201397	0.000000000000000E+000	5.69583e+07	0.000000000000000E+000	0.000000000000000E+000	15.0215	15.0215	0.0000000E+000	0.000000000000000E+000	0.018454
1	1	0	1	0	0	0	6470.59	10	1.87506	10.0014	55.6675	55.6675	0	15.4632	11	0.0209618	0.000000000000000E+000	5.68418e+07	0.000000000000000E+000	0.000000000000000E+000	15.4632	15.4632	0.0000000E+000	0.000000000000000E+000	0.0187533
1	1	0	1	0	0	0	6629.59	10	1.91233	10.0015	57.2577	57.2577	0	15.9049	11	0.0217973	0.000000000000000E+000	5.63219e+07	0.000000000000000E+000	0.000000000000000E+000	15.9049	15.9049	0.0000000E+000	0.000000000000000E+000	0.0191262
1	1	0	1	0	0	0	6788.59	10	1.95827	10.0012	58.8479	58.8479	0	16.3466	11	0.0226517	0.000000000000000E+000	5.53838e+07	0.000000000000000E+000	0.000000000000000E+000	16.3466	16.3466	0.0000000E+000	0.000000000000000E+000	0.0195851
1	1	0	1	0	0	0	6947.59	10	2.07322	10.0017	60.4381	60.4381	0	16.7884	11	0.0235387	0.000000000000000E+000	5.13273e+07	0.000000000000000E+000	0.000000000000000E+000	16.7884	16.7884	0.0000000E+000	0.000000000000000E+000	0.0207357
1	1	0	1	0	0	0	7106.59	10	2.24946	10.002	62.0284	62.0284	0	17.2301	11	0.0244915	0.000000000000000E+000	4.58199e+07	0.000000000000000E+000	0.000000000000000E+000	17.2301	17.2301	0.0000000E+000	0.000000000000000E+000	0.0224991
1	1	0	1	0	0	0	7265.59	10	2.43572	10.0016	63.6186	63.6186	0	17.6718	11	0.0255244	0.000000000000000E+000	4.13108e+07	0.000000000000000E+000	0.000000000000000E+000	17.6718	17.6718	0.0000000E+000	0.000000000000000E+000	0.024361
1	1	0	1	0	0	0	7424.59	10	2.66861	10.0016	65.2088	65.2088	0	18.1136	11	0.026651	0.000000000000000E+000	3.67811e+07	0.000000000000000E+000	0.000000000000000E+000	18.1136	18.1136	0.0000000E+000	0.000000000000000E+000	0.0266902
1	1	0	1	0	0	0	7583.59	10	2.92669	10.0008	66.7991	66.7991	0	18.5553	11	0.027886	0.000000000000000E+000	3.28901e+07	0.000000000000000E+000	0.000000000000000E+000	18.5553	18.5553	0.0000000E+000	0.000000000000000E+000	0.0292693
1	1	0	1	0	0	0	7742.59	10	3.20081	10.0009	68.3893	68.3893	0	18.997	11	0.0292395	0.000000000000000E+000	2.96688e+07	0.000000000000000E+000	0.000000000000000E+000	18.997	18.997	0.0000000E+000	0.000000000000000E+000	0.032011
1	1	0	1	0	0	0	7901.59	10	3.51176	10.0011	69.9795	69.9795	0	19.4388	11	0.03072	0.000000000000000E+000	2.67502e+07	0.000000000000000E+000	0.000000000000000E+000	19.4388	19.4388	0.0000000E+000	0.000000000000000E+000	0.0351215
1	1	0	1	0	0	0	7965.68	10	3.649	10.0017	70.6205	70.6205	0	19.6168	11	0.0313576	0.000000000000000E+000	2.56496e+07	0.000000000000000E+000	0.000000000000000E+000	19.6168	19.6168	0.0000000E+000	0.000000000000000E+000	0.0364962