Folder: EC-Lab-Processing/Data (part 2)

File: 2022_01_04 NiNx Ti electrode1_04_CP_C05.mpt
EC-Lab ASCII FILE
Nb header lines : 54

Chronopotentiometry

Run on channel : 5 (SN 30436)
User :
CE vs. WE compliance from -10 V to 10 V
Electrode connection : standard
Potential control : Ewe
Ewe ctrl range : min = -2.50 V, max = 2.50 V
Safety Limits :
	Do not start on E overload
Acquisition started on : 01/04/2023 12:17:22.870
Technique started on : 01/04/2023 12:29:22.413
Loaded Setting File :  NONE
Saved on :
	File : 2022_01_04 NiNx Ti electrode1_04_CP_C05.mpr
	Directory : C:\Users\grupogalan\Documents\EC-Lab\Data\Scott\
	Host : 169.254.104.159
Device : VSP (SN 1176)
Address : USB
EC-Lab for windows v11.46 (software)
Internet server v11.40 (firmware)
Command interpretor v11.40 (firmware)
Electrode material :
Initial state :
Electrolyte :
Comments :
Electrode surface area : 0.000 cm²
Characteristic mass : 0.001 g
Equivalent Weight : 0.000 g/eq.
Density : 0.000 g/cm3
Volume (V) : 0.001 cm³
Cycle Definition : Charge/Discharge alternance
Ns                  0                   1                   2                   3                   4                   5                   6                   7                   8                   9                   10                  11                  12
Is                  10.000              18.000              32.000              56.000              100.000             178.000             316.000             562.000             1.000               1.778               3.162               5.623               10.000
unit Is             µA                  µA                  µA                  µA                  µA                  µA                  µA                  µA                  mA                  mA                  mA                  mA                  mA
vs.                 <None>              <None>              <None>              <None>              <None>              <None>              <None>              <None>              <None>              <None>              <None>              <None>              <None>
ts (h:m:s)          0:03:0.0000         0:03:0.0000         0:03:0.0000         0:03:0.0000         0:03:0.0000         0:03:0.0000         0:03:0.0000         0:03:0.0000         0:03:0.0000         0:03:0.0000         0:03:0.0000         0:03:0.0000         0:03:0.0000
EM (V)              pass                pass                pass                pass                pass                pass                pass                pass                pass                pass                pass                pass                pass
dQM                 500.000             900.000             1.600               2.800               5.000               8.900               15.800              28.100              50.000              88.900              158.100             281.150             500.000
unit dQM            nA.h                nA.h                µA.h                µA.h                µA.h                µA.h                µA.h                µA.h                µA.h                µA.h                µA.h                µA.h                µA.h
record              <Ewe>               <Ewe>               <Ewe>               <Ewe>               <Ewe>               <Ewe>               <Ewe>               <Ewe>               <Ewe>               <Ewe>               <Ewe>               <Ewe>               <Ewe>
dEs (mV)            0.00                0.00                0.00                0.00                0.00                0.00                0.00                0.00                0.00                0.00                0.00                0.00                0.00
dts (s)             1.0000              1.0000              1.0000              1.0000              1.0000              1.0000              1.0000              1.0000              1.0000              1.0000              1.0000              1.0000              1.0000
E range min (V)     -2.500              -2.500              -2.500              -2.500              -2.500              -2.500              -2.500              -2.500              -2.500              -2.500              -2.500              -2.500              -2.500
E range max (V)     2.500               2.500               2.500               2.500               2.500               2.500               2.500               2.500               2.500               2.500               2.500               2.500               2.500
I Range             10 mA               10 mA               10 mA               10 mA               10 mA               10 mA               10 mA               10 mA               10 mA               10 mA               10 mA               10 mA               10 mA
Bandwidth           5                   5                   5                   5                   5                   5                   5                   5                   5                   5                   5                   5                   5
goto Ns'            0                   0                   0                   0                   0                   0                   0                   0                   0                   0                   0                   0                   0
nc cycles           0                   0                   0                   0                   0                   0                   0                   0                   0                   0                   0                   0                   0

mode	ox/red	error	control changes	Ns changes	counter inc.	Ns	time/s	control/mA	<Ewe>/V	I/mA	dQ/C	(Q-Qo)/C	half cycle	Q charge/discharge/mA.h	I Range	Energy charge/W.h	Energy discharge/W.h	Capacitance charge/µF	Capacitance discharge/µF	Q discharge/mA.h	Q charge/mA.h	Capacity/mA.h	Efficiency/%	cycle number	P/W
1	1	0	1	0	0	0	719.543	0.01	0.254727	0.00980302	9.28658e-06	9.28658e-06	0	2.57961e-06	11	6.57094e-10	0.000000000000000E+000	0.000000000000000E+000	0.000000000000000E+000	0.000000000000000E+000	2.57961e-06	2.57961e-06	0.0000000E+000	0.000000000000000E+000	2.49709e-06
1	1	0	1	0	0	0	775.543	0.01	0.426005	0.00986665	0.000550026	0.000550026	0	0.000152785	11	6.26675e-08	0.000000000000000E+000	3211.3	0.000000000000000E+000	0.000000000000000E+000	0.000152785	0.000152785	0.0000000E+000	0.000000000000000E+000	4.20324e-06
1	1	0	1	0	0	0	831.543	0.01	0.436776	0.00878497	0.00108495	0.00108495	0	0.000301375	11	1.26855e-07	0.000000000000000E+000	5959.63	0.000000000000000E+000	0.000000000000000E+000	0.000301375	0.000301375	0.0000000E+000	0.000000000000000E+000	3.83707e-06
1	1	0	1	0	0	0	887.543	0.01	0.436154	0.00954851	0.00161979	0.00161979	0	0.000449942	11	1.9191e-07	0.000000000000000E+000	8928.02	0.000000000000000E+000	0.000000000000000E+000	0.000449942	0.000449942	0.0000000E+000	0.000000000000000E+000	4.16462e-06
1	1	0	0	0	0	1	942.596	0.018	0.447959	0.0164839	0.000739321	0.00246459	0	0.000684608	11	2.96257e-07	0.000000000000000E+000	12754.5	0.000000000000000E+000	0.000000000000000E+000	0.000684608	0.000684608	0.0000000E+000	0.000000000000000E+000	7.38413e-06
1	1	0	0	0	0	1	998.596	0.018	0.441609	0.0159113	0.00168128	0.00340655	0	0.000946263	11	4.13004e-07	0.000000000000000E+000	18228.3	0.000000000000000E+000	0.000000000000000E+000	0.000946263	0.000946263	0.0000000E+000	0.000000000000000E+000	7.02657e-06
[...]
1	1	0	1	0	0	8	2279.6	1	0.780262	0.99909	0.120908	0.348546	0	0.0968184	11	6.93825e-05	0.000000000000000E+000	663221	0.000000000000000E+000	0.000000000000000E+000	0.0968184	0.0968184	0.0000000E+000	0.000000000000000E+000	0.000779552
1	1	0	1	0	0	8	2335.6	1	0.781494	0.999726	0.176867	0.404505	0	0.112362	11	8.1522e-05	0.000000000000000E+000	767900	0.000000000000000E+000	0.000000000000000E+000	0.112362	0.112362	0.0000000E+000	0.000000000000000E+000	0.00078128
1	1	0	0	0	0	9	2390.6	1.778	0.848055	1.77624	0.0923933	0.499896	0	0.13886	11	0.000103872	0.000000000000000E+000	842529	0.000000000000000E+000	0.000000000000000E+000	0.13886	0.13886	0.0000000E+000	0.000000000000000E+000	0.00150635
1	1	0	0	0	0	9	2446.6	1.778	0.851981	1.77688	0.191892	0.599395	0	0.166499	11	0.000127369	0.000000000000000E+000	1.00358e+06	0.000000000000000E+000	0.000000000000000E+000	0.166499	0.166499	0.0000000E+000	0.000000000000000E+000	0.00151387
1	1	0	0	0	0	9	2502.6	1.778	0.85456	1.7765	0.291393	0.698896	0	0.194138	11	0.000150955	0.000000000000000E+000	1.16515e+06	0.000000000000000E+000	0.000000000000000E+000	0.194138	0.194138	0.0000000E+000	0.000000000000000E+000	0.00151812
1	1	0	1	0	0	10	2557.6	3.162	0.944426	3.15996	0.123274	0.850599	0	0.236277	11	0.000189809	0.000000000000000E+000	1.23329e+06	0.000000000000000E+000	0.000000000000000E+000	0.236277	0.236277	0.0000000E+000	0.000000000000000E+000	0.00298434
1	1	0	1	0	0	10	2613.6	3.162	0.955092	3.16078	0.300283	1.02761	0	0.285447	11	0.000236529	0.000000000000000E+000	1.46725e+06	0.000000000000000E+000	0.000000000000000E+000	0.285447	0.285447	0.0000000E+000	0.000000000000000E+000	0.00301884
1	1	0	1	0	0	10	2669.6	3.162	0.961583	3.16053	0.477293	1.20462	0	0.334616	11	0.000283663	0.000000000000000E+000	1.70419e+06	0.000000000000000E+000	0.000000000000000E+000	0.334616	0.334616	0.0000000E+000	0.000000000000000E+000	0.00303911
1	1	0	0	0	0	11	2724.6	5.623	1.09107	5.62108	0.146152	1.44244	0	0.400677	11	0.000352056	0.000000000000000E+000	1.7247e+06	0.000000000000000E+000	0.000000000000000E+000	0.400677	0.400677	0.0000000E+000	0.000000000000000E+000	0.00613298
1	1	0	0	0	0	11	2780.6	5.623	1.11197	5.62153	0.460944	1.75723	0	0.488119	11	0.00044856	0.000000000000000E+000	2.04987e+06	0.000000000000000E+000	0.000000000000000E+000	0.488119	0.488119	0.0000000E+000	0.000000000000000E+000	0.00625095
1	1	0	0	0	0	11	2836.6	5.623	1.12141	5.62147	0.775735	2.07202	0	0.575561	11	0.000546275	0.000000000000000E+000	2.39075e+06	0.000000000000000E+000	0.000000000000000E+000	0.575561	0.575561	0.0000000E+000	0.000000000000000E+000	0.00630395
1	1	0	1	0	0	12	2891.6	10	1.25638	9.99913	0.129988	2.4381	0	0.67725	11	0.000665284	0.000000000000000E+000	2.43407e+06	0.000000000000000E+000	0.000000000000000E+000	0.67725	0.67725	0.0000000E+000	0.000000000000000E+000	0.0125627
1	1	0	1	0	0	12	2947.6	10	1.26552	9.99964	0.689941	2.99805	0	0.832793	11	0.000861625	0.000000000000000E+000	2.96603e+06	0.000000000000000E+000	0.000000000000000E+000	0.832793	0.832793	0.0000000E+000	0.000000000000000E+000	0.0126548
1	1	0	1	0	0	12	3003.6	10	1.26483	9.99862	1.24989	3.55801	0	0.988335	11	0.00105839	0.000000000000000E+000	3.5224e+06	0.000000000000000E+000	0.000000000000000E+000	0.988335	0.988335	0.0000000E+000	0.000000000000000E+000	0.0126466
1	1	0	1	0	0	12	3058.6	10	1.26352	9.99881	1.79985	4.10796	0	1.1411	11	0.00125154	0.000000000000000E+000	4.07217e+06	0.000000000000000E+000	0.000000000000000E+000	1.1411	1.1411	0.0000000E+000	0.000000000000000E+000	0.0126337

File: 2022_01_05 CoNx Ti electrode1 exp2_03_CP_C05.mpt
EC-Lab ASCII FILE
Nb header lines : 53

Chronopotentiometry

Run on channel : 5 (SN 30436)
User :
CE vs. WE compliance from -10 V to 10 V
Electrode connection : standard
Potential control : Ewe
Ewe ctrl range : min = -2.50 V, max = 2.50 V
Safety Limits :
	Do not start on E overload
Acquisition started on : 01/05/2023 12:05:41.627
Technique started on : 01/05/2023 12:16:32.448
Loaded Setting File :  C:\Users\grupogalan\Documents\EC-Lab\Data\Scott\2022_01_04 NiNx Ti electrode1 CV post tafel, bulk.mps
Saved on :
	File : 2022_01_05 CoNx Ti electrode1 exp2_03_CP_C05.mpr
	Directory : C:\Users\grupogalan\Documents\EC-Lab\Data\Scott\
	Host : 169.254.104.159
Device : VSP (SN 1176)
Address : USB
EC-Lab for windows v11.46 (software)
Internet server v11.40 (firmware)
Command interpretor v11.40 (firmware)
Electrode material :
Initial state :
Electrolyte :
Comments :
Electrode surface area : 0.000 cm²
Characteristic mass : 0.001 g
Equivalent Weight : 0.000 g/eq.
Density : 0.000 g/cm3
Volume (V) : 0.001 cm³
Cycle Definition : Charge/Discharge alternance
Is                  10.000
unit Is             mA
vs.                 <None>
ts (h:m:s)          2:00:0.0000
EM (V)              pass
dQM                 20.000
unit dQM            mA.h
record              <Ewe>
dEs (mV)            0.00
dts (s)             1.0000
E range min (V)     -2.500
E range max (V)     2.500
I Range             10 mA
Bandwidth           5
goto Ns'            0
nc cycles           0

mode	ox/red	error	control changes	Ns changes	counter inc.	Ns	time/s	control/mA	<Ewe>/V	I/mA	dQ/C	(Q-Qo)/C	half cycle	Q charge/discharge/mA.h	I Range	Energy charge/W.h	Energy discharge/W.h	Capacitance charge/µF	Capacitance discharge/µF	Q discharge/mA.h	Q charge/mA.h	Capacity/mA.h	Efficiency/%	cycle number	P/W
1	1	0	1	0	0	0	650.821	10	0.831014	9.99951	0.00947513	0.00947513	0	0.00263198	11	2.18721e-06	0.000000000000000E+000	0.000000000000000E+000	0.000000000000000E+000	0.000000000000000E+000	0.00263198	0.00263198	0.0000000E+000	0.000000000000000E+000	0.00830974
1	1	0	1	0	0	0	814.821	10	0.839633	9.99887	1.64931	1.64931	0	0.458142	11	0.000384484	0.000000000000000E+000	1.91367e+08	0.000000000000000E+000	0.000000000000000E+000	0.458142	0.458142	0.0000000E+000	0.000000000000000E+000	0.00839539
1	1	0	1	0	0	0	978.821	10	0.838327	9.99887	3.28914	3.28914	0	0.91365	11	0.000766676	0.000000000000000E+000	4.49824e+08	0.000000000000000E+000	0.000000000000000E+000	0.91365	0.91365	0.0000000E+000	0.000000000000000E+000	0.00838232
1	1	0	1	0	0	0	1142.82	10	0.837064	9.99945	4.92897	4.92897	0	1.36916	11	0.00114825	0.000000000000000E+000	8.14778e+08	0.000000000000000E+000	0.000000000000000E+000	1.36916	1.36916	0.0000000E+000	0.000000000000000E+000	0.00837018
1	1	0	1	0	0	0	1306.82	10	0.835371	9.9997	6.56879	6.56879	0	1.82466	11	0.00152918	0.000000000000000E+000	1.50787e+09	0.000000000000000E+000	0.000000000000000E+000	1.82466	1.82466	0.0000000E+000	0.000000000000000E+000	0.00835346
1	1	0	1	0	0	0	1470.82	10	0.834127	9.99932	8.20861	8.20861	0	2.28017	11	0.00190943	0.000000000000000E+000	2.63741e+09	0.000000000000000E+000	0.000000000000000E+000	2.28017	2.28017	0.0000000E+000	0.000000000000000E+000	0.0083407
1	1	0	1	0	0	0	1634.82	10	0.832627	9.99792	9.84843	9.84843	0	2.73567	11	0.00228907	0.000000000000000E+000	6.10693e+09	0.000000000000000E+000	0.000000000000000E+000	2.73567	2.73567	0.0000000E+000	0.000000000000000E+000	0.00832454
1	1	0	1	0	0	0	1798.82	10	0.831542	9.99856	11.4882	11.4882	0	3.19118	11	0.00266809	0.000000000000000E+000	2.17639e+10	0.000000000000000E+000	0.000000000000000E+000	3.19118	3.19118	0.0000000E+000	0.000000000000000E+000	0.00831422
1	1	0	1	0	0	0	1962.82	10	0.830237	9.99817	13.1281	13.1281	0	3.64668	11	0.00304659	0.000000000000000E+000	1.68892e+10	0.000000000000000E+000	0.000000000000000E+000	3.64668	3.64668	0.0000000E+000	0.000000000000000E+000	0.00830085
1	1	0	1	0	0	0	2126.82	10	0.829113	9.99875	14.7679	14.7679	0	4.10219	11	0.00342455	0.000000000000000E+000	7.76519e+09	0.000000000000000E+000	0.000000000000000E+000	4.10219	4.10219	0.0000000E+000	0.000000000000000E+000	0.00829009
1	1	0	1	0	0	0	2290.82	10	0.828212	9.99945	16.4077	16.4077	0	4.5577	11	0.00380203	0.000000000000000E+000	5.85568e+09	0.000000000000000E+000	0.000000000000000E+000	4.5577	4.5577	0.0000000E+000	0.000000000000000E+000	0.00828167
1	1	0	1	0	0	0	2454.82	10	0.827184	9.999	18.0475	18.0475	0	5.0132	11	0.00417905	0.000000000000000E+000	4.71213e+09	0.000000000000000E+000	0.000000000000000E+000	5.0132	5.0132	0.0000000E+000	0.000000000000000E+000	0.00827102
1	1	0	1	0	0	0	2618.82	10	0.826469	9.99906	19.6874	19.6874	0	5.46871	11	0.00455571	0.000000000000000E+000	4.33105e+09	0.000000000000000E+000	0.000000000000000E+000	5.46871	5.46871	0.0000000E+000	0.000000000000000E+000	0.00826391
1	1	0	1	0	0	0	2782.82	10	0.825628	9.99932	21.3272	21.3272	0	5.92422	11	0.00493199	0.000000000000000E+000	3.95931e+09	0.000000000000000E+000	0.000000000000000E+000	5.92422	5.92422	0.0000000E+000	0.000000000000000E+000	0.00825572
1	1	0	1	0	0	0	2946.82	10	0.824796	9.99919	22.967	22.967	0	6.37973	11	0.00530792	0.000000000000000E+000	3.69309e+09	0.000000000000000E+000	0.000000000000000E+000	6.37973	6.37973	0.0000000E+000	0.000000000000000E+000	0.00824729
1	1	0	1	0	0	0	3110.82	10	0.824381	9.999	24.6069	24.6069	0	6.83524	11	0.00568357	0.000000000000000E+000	3.7093e+09	0.000000000000000E+000	0.000000000000000E+000	6.83524	6.83524	0.0000000E+000	0.000000000000000E+000	0.00824298
1	1	0	1	0	0	0	3274.82	10	0.823791	9.99938	26.2467	26.2467	0	7.29074	11	0.00605894	0.000000000000000E+000	3.63376e+09	0.000000000000000E+000	0.000000000000000E+000	7.29074	7.29074	0.0000000E+000	0.000000000000000E+000	0.00823741
1	1	0	1	0	0	0	3438.82	10	0.82327	9.9983	27.8865	27.8865	0	7.74625	11	0.00643405	0.000000000000000E+000	3.60068e+09	0.000000000000000E+000	0.000000000000000E+000	7.74625	7.74625	0.0000000E+000	0.000000000000000E+000	0.0082313
1	1	0	1	0	0	0	3602.82	10	0.822894	9.99913	29.5263	29.5263	0	8.20176	11	0.00680889	0.000000000000000E+000	3.63609e+09	0.000000000000000E+000	0.000000000000000E+000	8.20176	8.20176	0.0000000E+000	0.000000000000000E+000	0.00822822
1	1	0	1	0	0	0	3766.82	10	0.822044	9.99957	31.1662	31.1662	0	8.65727	11	0.0071835	0.000000000000000E+000	3.47423e+09	0.000000000000000E+000	0.000000000000000E+000	8.65727	8.65727	0.0000000E+000	0.000000000000000E+000	0.00822009
1	1	0	1	0	0	0	3930.82	10	0.821498	9.99913	32.806	32.806	0	9.11277	11	0.00755786	0.000000000000000E+000	3.44726e+09	0.000000000000000E+000	0.000000000000000E+000	9.11277	9.11277	0.0000000E+000	0.000000000000000E+000	0.00821426
1	1	0	1	0	0	0	4094.82	10	0.821253	9.9983	34.4458	34.4458	0	9.56828	11	0.00793199	0.000000000000000E+000	3.52872e+09	0.000000000000000E+000	0.000000000000000E+000	9.56828	9.56828	0.0000000E+000	0.000000000000000E+000	0.00821113
1	1	0	1	0	0	0	4258.82	10	0.820735	9.99938	36.0857	36.0857	0	10.0238	11	0.00830588	0.000000000000000E+000	3.51037e+09	0.000000000000000E+000	0.000000000000000E+000	10.0238	10.0238	0.0000000E+000	0.000000000000000E+000	0.00820684
1	1	0	1	0	0	0	4422.82	10	0.820189	9.99989	37.7255	37.7255	0	10.4793	11	0.00867958	0.000000000000000E+000	3.48473e+09	0.000000000000000E+000	0.000000000000000E+000	10.4793	10.4793	0.0000000E+000	0.000000000000000E+000	0.0082018
[...]
1	1	0	1	0	0	0	5406.82	10	0.81863	9.99856	47.5645	47.5645	0	13.2124	11	0.0109193	0.000000000000000E+000	3.84067e+09	0.000000000000000E+000	0.000000000000000E+000	13.2124	13.2124	0.0000000E+000	0.000000000000000E+000	0.00818512
1	1	0	1	0	0	0	5570.82	10	0.818481	9.99926	49.2043	49.2043	0	13.6679	11	0.0112921	0.000000000000000E+000	3.92598e+09	0.000000000000000E+000	0.000000000000000E+000	13.6679	13.6679	0.0000000E+000	0.000000000000000E+000	0.0081842
1	1	0	1	0	0	0	5734.82	10	0.818101	9.99875	50.8441	50.8441	0	14.1234	11	0.0116648	0.000000000000000E+000	3.93715e+09	0.000000000000000E+000	0.000000000000000E+000	14.1234	14.1234	0.0000000E+000	0.000000000000000E+000	0.00817998
1	1	0	1	0	0	0	5898.82	10	0.817999	9.99913	52.484	52.484	0	14.5789	11	0.0120375	0.000000000000000E+000	4.0324e+09	0.000000000000000E+000	0.000000000000000E+000	14.5789	14.5789	0.0000000E+000	0.000000000000000E+000	0.00817928
1	1	0	1	0	0	0	6062.82	10	0.817808	9.99964	54.1238	54.1238	0	15.0344	11	0.01241	0.000000000000000E+000	4.09831e+09	0.000000000000000E+000	0.000000000000000E+000	15.0344	15.0344	0.0000000E+000	0.000000000000000E+000	0.00817778
1	1	0	1	0	0	0	6226.82	10	0.817728	9.99856	55.7636	55.7636	0	15.4899	11	0.0127825	0.000000000000000E+000	4.19697e+09	0.000000000000000E+000	0.000000000000000E+000	15.4899	15.4899	0.0000000E+000	0.000000000000000E+000	0.0081761
1	1	0	1	0	0	0	6390.82	10	0.817377	9.99926	57.4035	57.4035	0	15.9454	11	0.0131548	0.000000000000000E+000	4.20924e+09	0.000000000000000E+000	0.000000000000000E+000	15.9454	15.9454	0.0000000E+000	0.000000000000000E+000	0.00817316
1	1	0	1	0	0	0	6554.82	10	0.817336	9.99919	59.0433	59.0433	0	16.4009	11	0.0135271	0.000000000000000E+000	4.31652e+09	0.000000000000000E+000	0.000000000000000E+000	16.4009	16.4009	0.0000000E+000	0.000000000000000E+000	0.0081727
1	1	0	1	0	0	0	6718.82	10	0.817213	9.9983	60.6831	60.6831	0	16.8564	11	0.0138994	0.000000000000000E+000	4.397e+09	0.000000000000000E+000	0.000000000000000E+000	16.8564	16.8564	0.0000000E+000	0.000000000000000E+000	0.00817075
1	1	0	1	0	0	0	6882.82	10	0.817179	9.99881	62.3229	62.3229	0	17.3119	11	0.0142717	0.000000000000000E+000	4.50467e+09	0.000000000000000E+000	0.000000000000000E+000	17.3119	17.3119	0.0000000E+000	0.000000000000000E+000	0.00817082
1	1	0	1	0	0	0	7046.82	10	0.816897	9.99906	63.9628	63.9628	0	17.7674	11	0.0146438	0.000000000000000E+000	4.5309e+09	0.000000000000000E+000	0.000000000000000E+000	17.7674	17.7674	0.0000000E+000	0.000000000000000E+000	0.00816821
1	1	0	1	0	0	0	7210.82	10	0.816845	9.99887	65.6026	65.6026	0	18.2229	11	0.0150159	0.000000000000000E+000	4.62971e+09	0.000000000000000E+000	0.000000000000000E+000	18.2229	18.2229	0.0000000E+000	0.000000000000000E+000	0.00816752
1	1	0	1	0	0	0	7374.82	10	0.816704	9.9983	67.2424	67.2424	0	18.6785	11	0.015388	0.000000000000000E+000	4.69886e+09	0.000000000000000E+000	0.000000000000000E+000	18.6785	18.6785	0.0000000E+000	0.000000000000000E+000	0.00816565
1	1	0	1	0	0	0	7538.82	10	0.816758	9.99919	68.8823	68.8823	0	19.134	11	0.01576	0.000000000000000E+000	4.83157e+09	0.000000000000000E+000	0.000000000000000E+000	19.134	19.134	0.0000000E+000	0.000000000000000E+000	0.00816692
1	1	0	1	0	0	0	7702.82	10	0.816661	9.99913	70.5221	70.5221	0	19.5895	11	0.016132	0.000000000000000E+000	4.91339e+09	0.000000000000000E+000	0.000000000000000E+000	19.5895	19.5895	0.0000000E+000	0.000000000000000E+000	0.0081659
1	1	0	1	0	0	0	7849.87	10	0.816513	9.99919	71.9925	71.9925	0	19.9979	11	0.0164655	0.000000000000000E+000	4.96454e+09	0.000000000000000E+000	0.000000000000000E+000	19.9979	19.9979	0.0000000E+000	0.000000000000000E+000	0.00816447