Folder: EC-Lab-Processing/Data_1 (part 4)

File: 2022_01_25 Co50Ni25Fe25Nx elec3 set1_C05.mpt
EC-Lab ASCII FILE
Nb header lines : 65

Potentio Electrochemical Impedance Spectroscopy

Run on channel : 5 (SN 30436)
User :
CE vs. WE compliance from -10 V to 10 V
Electrode connection : standard
Potential control : Ewe
Ewe ctrl range : min = -10.00 V, max = 10.00 V
Safety Limits :
	Do not start on E overload
Acquisition started on : 01/25/2023 13:02:07.900
Loaded Setting File :  NONE
Saved on :
	File : 2022_01_25 Co50Ni25Fe25Nx elec3 set1_C05.mpr
	Directory : C:\Users\grupogalan\Documents\EC-Lab\Data\Scott\
	Host : 169.254.104.159
Device : VSP (SN 1176)
Address : USB
EC-Lab for windows v11.46 (software)
Internet server v11.40 (firmware)
Command interpretor v11.40 (firmware)
Electrode material :
Initial state :
Electrolyte :
Comments :
Electrode surface area : 0.000 cm²
Characteristic mass : 0.001 g
Equivalent Weight : 0.000 g/eq.
Density : 0.000 g/cm3
Volume (V) : 0.001 cm³
Record Ece
Record Analogic IN 1
Cycle Definition : Charge/Discharge alternance
Mode                Single sine
E (V)               0.0000
vs.                 Eoc
tE (h:m:s)          0:00:0.0000
record              0
dI                  0.000
unit dI             mA
dt (s)              0.000
fi                  200.000
unit fi             kHz
ff                  100.000
unit ff             mHz
Nd                  6
Points              per decade
spacing             Logarithmic
Va (mV)             10.0
pw                  0.10
Na                  2
corr                0
E range min (V)     -10.000
E range max (V)     10.000
I Range             Auto
Bandwidth           5
nc cycles           0
goto Ns'            0
nr cycles           0
inc. cycle          0

freq/Hz	Re(Z)/Ohm	-Im(Z)/Ohm	|Z|/Ohm	Phase(Z)/deg	time/s	<Ewe>/V	<I>/mA	Cs/µF	Cp/µF	cycle number	I Range	|Ewe|/V	|I|/A	Ns	(Q-Qo)/mA.h	<Ece>/V	|Ece|/V	Phase(Zce)/deg	|Zce|/Ohm	Re(Zce)/Ohm	-Im(Zce)/Ohm	Phase(Zwe-ce)/deg	|Zwe-ce|/Ohm	Re(Zwe-ce)/Ohm	-Im(Zwe-ce)/Ohm	Analog IN 1/V	Re(Y)/Ohm-1	Im(Y)/Ohm-1	|Y|/Ohm-1	Phase(Y)/deg	dq/mA.h
199998	1.3702	-1.33047	1.90987	44.1572	2.65156	-0.160365	-0.129332	-0.598119	-0.290263	1	9	0.00663109	0.003472	0	-1.72822e-05	0.0625946	0.00141963	-51.7469	0.40888	0.253153	0.321087	31.873	1.91158	1.62336	-1.00939	-1.62509e-05	0.375643	-0.364751	0.523594	-44.1572	-1.72822e-05
135123	1.00704	-0.567069	1.15573	29.3839	3.02856	-0.160292	-0.147743	-2.07709	-0.500053	1	9	0.0100951	0.00873481	0	-1.98344e-05	0.0713431	0.00609742	7.33733	0.698059	0.692343	-0.0891497	21.1141	1.82169	1.69939	-0.656218	-9.64916e-05	0.753942	-0.424546	0.865256	-29.3839	-2.55216e-06
91291.2	0.964526	-0.221686	0.989674	12.944	3.52754	-0.160571	-0.172676	-7.86417	-0.394589	1	9	0.0101269	0.0102326	0	-6.48937e-05	0.084485	0.00766355	13.5374	0.748936	0.728129	-0.175312	13.1997	1.73859	1.69265	-0.396998	-0.000176732	0.984758	-0.226336	1.01043	-12.944	-4.50593e-05
61674.2	0.947468	-0.0618531	0.949485	3.73511	4.02651	-0.16046	-0.136562	-41.721	-0.177053	1	9	0.00963995	0.0101528	0	-6.6239e-05	0.0603597	0.00762144	9.96375	0.750672	0.73935	-0.129885	6.4849	1.69768	1.68682	-0.191738	0.000224471	1.05097	-0.0686097	1.0532	-3.73511	-1.34528e-06
41669.8	0.954646	0.0713648	0.95731	-4.27521	4.40353	-0.160393	-0.147296	53.5199	0.297425	1	9	0.00951535	0.00993968	0	-5.9212e-05	0.0771691	0.00743918	7.4971	0.748433	0.742035	-0.0976525	0.887646	1.69688	1.69668	-0.0262877	0.000625675	1.04169	0.0778716	1.04459	4.27521	7.02699e-06
28151	0.990309	0.147176	1.00119	-8.4532	4.90254	-0.160502	-0.157992	38.414	0.830107	1	9	0.0100792	0.0100673	0	-4.34487e-05	0.0756028	0.00759587	4.66281	0.754512	0.752015	-0.0613354	-2.82056	1.74444	1.74232	0.0858405	-9.64916e-05	0.987965	0.146827	0.998816	8.4532	1.57633e-05
19020.9	1.00687	0.242768	1.03572	-13.5559	5.27954	-0.16068	-0.302188	34.4665	1.89361	1	9	0.0109711	0.0105927	0	1.95443e-05	0.0788118	0.00818362	2.59737	0.772575	0.771781	-0.0350108	-6.66228	1.79074	1.77865	0.207757	-0.000577936	0.93861	0.226309	0.965507	13.5559	6.2993e-05
12850.7	1.02483	0.372105	1.09029	-19.9555	5.65655	-0.160489	-0.16634	33.2833	3.87679	1	9	0.0102808	0.00942936	0	1.06742e-05	0.0723937	0.00733509	1.30565	0.7779	0.777698	-0.0177251	-11.1226	1.83703	1.80253	0.35438	0.000144231	0.862116	0.313026	0.917186	19.9555	-8.87009e-06
8684.68	1.0664	0.568944	1.20868	-28.0807	5.91157	-0.16064	-0.163545	32.2105	7.13693	1	9	0.0101341	0.00838439	0	-5.24695e-06	0.0730814	0.00627965	-0.694138	0.748969	0.748914	0.00907353	-17.6621	1.90512	1.81532	0.578017	-0.000577936	0.729957	0.389444	0.827347	28.0807	-1.59211e-05
5864.01	1.11225	0.840443	1.39407	-37.0756	6.16656	-0.160851	-0.178863	32.2936	11.7371	1	9	0.00973112	0.00698035	0	-1.48247e-05	0.0734825	0.00551874	-1.74716	0.79061	0.790243	0.0241049	-24.4384	2.08972	1.90249	0.864547	0.000144231	0.572309	0.432451	0.717322	37.0756	-9.57779e-06
3960.08	1.11784	1.10336	1.57066	-44.6266	6.61186	-0.160821	-0.225376	36.4249	17.9751	1	9	0.00981854	0.00625122	0	-3.79501e-05	0.0714195	0.00509423	0.280385	0.814917	0.814908	-0.0039879	-29.6318	2.22354	1.93275	1.09937	0.000384953	0.453122	0.447254	0.636675	44.6266	-2.31253e-05
2678.72	1.24947	1.63722	2.05953	-52.6503	7.04112	-0.160699	-0.176515	36.2899	22.9331	1	9	0.00998304	0.00484723	0	-6.24762e-05	0.0752207	0.0037312	-0.666789	0.76976	0.769708	0.008958	-39.1894	2.60519	2.01918	1.64618	-1.62509e-05	0.294571	0.385984	0.485547	52.6503	-2.45262e-05
1808.26	1.2567	2.28351	2.60648	-61.1745	7.48709	-0.160452	-0.173757	38.5438	29.5838	1	9	0.00944503	0.00362368	0	-8.69477e-05	0.0742465	0.00286223	-5.93373	0.78987	0.785638	0.0816553	-49.1892	3.12492	2.04233	2.36517	6.39899e-05	0.184979	0.336121	0.38366	61.1745	-2.44715e-05
1221.96	1.31218	3.28038	3.53308	-68.1982	8.1756	-0.160398	-0.0276599	39.7047	34.228	1	10	0.00982372	0.0027805	0	-0.000102288	0.0717442	0.00256045	-5.81182	0.920862	0.916128	0.0932479	-56.5549	4.0431	2.2283	3.37362	0.000144231	0.10512	0.262794	0.283039	68.1982	-1.53402e-05
825.264	1.38822	4.70137	4.90204	-73.5492	8.62083	-0.160356	-0.0276338	41.0207	37.7309	1	10	0.00941291	0.0019202	0	-0.000107207	0.0724128	0.001633	-11.3563	0.850431	0.833781	0.167458	-65.4693	5.3519	2.222	4.86883	-9.64916e-05	0.0577703	0.195646	0.203997	73.5492	-4.9187e-06
558.036	1.66681	6.96465	7.16133	-76.5409	9.0676	-0.16058	-0.0282005	40.9505	38.7321	1	10	0.0095494	0.00133347	0	-0.000109217	0.0747814	0.00113382	-16.6065	0.850276	0.814812	0.243006	-71.0013	7.62291	2.48162	7.20766	-1.62509e-05	0.0325011	0.135804	0.139639	76.5409	-2.01029e-06
377.051	1.8234	9.85572	10.023	-79.5183	9.5108	-0.160565	-0.0239802	42.8283	41.4109	1	10	0.00924613	0.000922493	0	-0.000112869	0.0744185	0.00095461	-18.8958	1.03482	0.979048	0.335123	-74.6239	10.5692	2.80244	10.1908	0.000465194	0.0181505	0.0981059	0.0997707	79.5183	-3.65183e-06
254.755	2.66524	13.6128	13.8713	-78.9223	9.95711	-0.160477	-0.0230706	45.8931	44.1989	1	10	0.0088972	0.00064141	0	-0.000115802	0.0710948	0.000347418	-31.0131	0.541647	0.464218	0.279075	-77.3048	14.24	3.12946	13.8919	0.000384953	0.0138517	0.070748	0.0720913	78.9223	-2.93314e-06
172.037	2.9753	20.1873	20.4054	-81.6158	10.3975	-0.160635	-0.0276898	45.8268	44.8526	1	10	0.00909937	0.000445929	0	-0.000119457	0.0728903	0.000698812	-26.2405	1.56709	1.4056	0.692873	-78.1506	21.3348	4.3809	20.8802	0.000384953	0.00714564	0.0484829	0.0490066	81.6158	-3.65555e-06
116.227	4.53496	29.3298	29.6783	-81.2106	11.0797	-0.160341	-0.00253784	46.6878	45.5977	1	11	0.00924351	0.000311457	0	-0.000121711	0.0663576	0.000846076	-67.8613	2.71651	1.02372	2.51623	-80.0988	32.3275	5.55868	31.846	0.000545434	0.00514867	0.033299	0.0336947	81.2106	-2.25374e-06
78.5176	6.0326	43.2049	43.624	-82.0513	11.5336	-0.160789	-0.00395642	46.9159	46.0188	1	11	0.00937373	0.000214876	0	-0.00012226	0.0699105	0.000301975	-30.876	1.40535	1.20618	0.721197	-80.6421	44.5185	7.23878	43.9261	0.000224471	0.00316996	0.0227029	0.0229232	82.0513	-5.49002e-07

File: 2022_01_25 Co50Ni25Fe25Nx elec3 set2_C05_01_CV_C02.mpt
EC-Lab ASCII FILE
Nb header lines : 57

Cyclic Voltammetry

Run on channel : 2 (SN 12477)
User :
CE vs. WE compliance from -10 V to 10 V
Electrode connection : standard
Potential control : Ewe
Ewe ctrl range : min = -2.50 V, max = 2.50 V
Safety Limits :
	Do not start on E overload
Acquisition started on : 01/25/2023 13:03:00.629
Loaded Setting File :  C:\Users\grupogalan\Documents\EC-Lab\Data\Scott\2022_01_24 Co50Ni25Fe25Nx elec1 set1.1.mps
Saved on :
	File : 2022_01_25 Co50Ni25Fe25Nx elec3 set2_C05_01_CV_C02.mpr
	Directory : C:\Users\grupogalan\Documents\EC-Lab\Data\Scott\
	Host : 169.254.104.159
Device : VSP (SN 1176)
Address : USB
EC-Lab for windows v11.46 (software)
Internet server v11.40 (firmware)
Command interpretor v11.40 (firmware)
Electrode material :
Initial state :
Electrolyte :
Comments :
Electrode surface area : 0.000 cm²
Characteristic mass : 0.001 g
Equivalent Weight : 0.000 g/eq.
Density : 0.000 g/cm3
Volume (V) : 0.001 cm³
Cycle Definition : Charge/Discharge alternance
Ei (V)              0.000
vs.                 Eoc
dE/dt               10.000
dE/dt unit          mV/s
E1 (V)              1.000
vs.                 Ref
Step percent        50
N                   10
E range min (V)     -2.500
E range max (V)     2.500
I Range             Auto
I Range min         Unset
I Range max         Unset
I Range init        Unset
Bandwidth           5
E2 (V)              0.000
vs.                 Ref
nc cycles           2
Reverse Scan        1
Ef (V)              0.000
vs.                 Eoc

mode	ox/red	error	control changes	counter inc.	time/s	control/V	Ewe/V	<I>/mA	cycle number	(Q-Qo)/C	I Range	P/W
2	1	0	0	0	0.000000000000000E+000	-0.152166	-0.152172	0.0226807	1	0.0000000E+000	13	-3.45136e-06
2	0	0	1	0	4.456	-0.107606	-0.109568	0.00309452	1	8.76038e-06	13	-3.39062e-07
2	0	0	0	0	8.957	-0.0625954	-0.0625372	0.00439101	1	2.64512e-05	13	-2.74601e-07
2	0	0	1	0	13.458	-0.0175848	-0.0170589	0.00480817	1	4.76206e-05	13	-8.20218e-08
2	0	0	1	0	17.9592	0.0274257	0.0269154	0.00646948	1	7.12894e-05	13	1.74129e-07
2	0	0	0	0	22.4602	0.0724363	0.071962	0.00727535	1	9.83955e-05	13	5.23549e-07
2	1	0	1	0	26.9612	0.117447	0.117223	0.0155193	1	0.000141285	13	1.81922e-06
2	1	0	1	0	31.4623	0.162458	0.162759	0.0351528	1	0.000250722	13	5.72143e-06
2	1	0	0	0	35.9634	0.207468	0.206516	0.0461635	1	0.000431999	13	9.53352e-06
2	1	0	1	0	40.4944	0.252779	0.251856	0.0596782	1	0.000670266	12	1.50303e-05
2	1	0	0	0	44.9954	0.297789	0.297827	0.0856427	1	0.000996813	12	2.55067e-05
2	1	0	0	0	49.4966	0.3428	0.341404	0.137829	1	0.00149704	12	4.70553e-05
2	1	0	1	0	53.9976	0.38781	0.387506	0.243188	1	0.0023406	12	9.42366e-05
2	1	0	0	0	58.4986	0.432821	0.432376	0.421803	1	0.00382399	12	0.000182377
2	1	0	1	0	62.9997	0.477831	0.477735	0.66912	1	0.0062824	12	0.000319662
2	1	0	1	0	67.5008	0.522842	0.52069	0.951021	1	0.0099456	12	0.000495187
2	1	0	0	0	72.0318	0.568153	0.566572	1.2762	1	0.0150009	11	0.000723057
2	1	0	1	0	76.5328	0.613163	0.613011	1.78498	1	0.0217261	11	0.00109422
2	1	0	1	0	81.034	0.658174	0.657133	4.02396	1	0.0335434	11	0.00264428
2	1	0	0	0	85.535	0.703184	0.702382	10.7231	1	0.0650847	11	0.00753173
2	1	0	1	0	90.066	0.748495	0.748462	21.0174	1	0.136102	10	0.0157308
2	1	0	1	0	94.5672	0.793505	0.793194	33.43	1	0.258116	10	0.0265165
2	1	0	0	0	99.0682	0.838516	0.837351	47.5065	1	0.439769	10	0.0397796
2	1	0	1	0	103.569	0.883526	0.88228	63.3896	1	0.688495	10	0.0559273
2	1	0	1	0	108.07	0.928538	0.927866	80.5529	1	1.0115	10	0.0747423
2	1	0	0	0	112.571	0.973548	0.972618	98.7256	1	1.41479	10	0.0960224
2	1	0	1	0	116.973	0.98245	0.982281	101.422	1	1.87508	10	0.0996253
2	1	0	1	0	121.474	0.937439	0.936999	82.1512	1	2.28799	10	0.0769756
2	1	0	0	0	125.975	0.892429	0.891664	64.7875	1	2.61779	10	0.0577687
2	1	0	1	0	130.476	0.847418	0.846806	49.2554	1	2.87393	10	0.0417098
2	1	0	0	0	134.977	0.802408	0.80103	35.3182	1	3.06344	10	0.0282909
2	1	0	0	0	139.478	0.757397	0.756529	23.4097	1	3.19474	10	0.0177101
2	1	0	1	0	143.979	0.712386	0.713357	13.6225	1	3.27718	10	0.00971773
2	1	0	0	0	148.48	0.667376	0.666858	6.31655	1	3.321	10	0.00421225
2	1	0	0	0	153.011	0.622065	0.620271	1.90025	1	3.33842	11	0.00117867
2	1	0	1	0	157.542	0.576755	0.575714	0.240669	1	3.34244	12	0.000138556
2	0	0	0	0	162.043	0.531744	0.531335	-0.109277	1	3.34248	12	-5.80628e-05
2	0	0	1	0	166.544	0.486732	0.486025	-0.187732	1	3.34176	12	-9.12423e-05
2	0	0	1	0	171.046	0.441723	0.440753	-0.200477	1	3.34087	12	-8.83605e-05
2	0	0	0	0	175.547	0.396712	0.39705	-0.202173	1	3.33995	12	-8.02726e-05
2	0	0	1	0	180.048	0.351702	0.351317	-0.190228	1	3.33906	12	-6.68305e-05
2	0	0	1	0	184.549	0.306691	0.306719	-0.174716	1	3.33823	12	-5.35888e-05
2	0	0	0	0	189.05	0.261681	0.261773	-0.147164	1	3.3375	12	-3.85236e-05
2	0	0	1	0	193.551	0.21667	0.216085	-0.113608	1	3.33691	12	-2.4549e-05
2	0	0	1	0	198.052	0.171659	0.170605	-0.0829711	1	3.33646	12	-1.41553e-05
2	0	0	0	0	202.553	0.126649	0.125097	-0.062618	1	3.33613	12	-7.83335e-06
2	0	0	1	0	207.054	0.0816384	0.08063	-0.0496546	1	3.33587	12	-4.00365e-06
2	0	0	0	0	211.555	0.0366279	0.0355017	-0.0419869	1	3.33567	12	-1.49061e-06
2	0	0	0	1	215.877	0.00652081	0.00628278	-0.0335865	2	3.3355	12	-2.11017e-07
2	0	0	1	1	220.378	0.0515314	0.0520591	-0.0229412	2	3.33537	12	-1.1943e-06
2	0	0	1	1	224.879	0.0965419	0.0955423	-0.015528	2	3.33529	12	-1.48358e-06
2	0	0	0	1	229.38	0.141552	0.141056	-0.00818362	2	3.33523	12	-1.15435e-06
2	1	0	1	1	233.881	0.186563	0.185675	-0.000962062	2	3.33521	12	-1.78631e-07
2	1	0	1	1	238.382	0.231574	0.229331	0.0115043	2	3.33523	12	2.63829e-06
2	1	0	0	1	242.883	0.276584	0.277274	0.0381739	2	3.33534	12	1.05846e-05
2	1	0	1	1	247.384	0.321595	0.321711	0.0815969	2	3.33561	12	2.62506e-05
2	1	0	0	1	251.885	0.366605	0.367486	0.144329	2	3.33612	12	5.3039e-05
2	1	0	0	1	256.386	0.411616	0.410675	0.228487	2	3.33696	12	9.38341e-05
2	1	0	1	1	260.887	0.456626	0.45609	0.28862	2	3.33813	12	0.000131637
2	1	0	0	1	265.388	0.501637	0.499939	0.380434	2	3.33964	12	0.000190194
2	1	0	0	1	269.889	0.546648	0.546759	0.479406	2	3.34159	12	0.00026212
2	1	0	1	1	274.39	0.591658	0.591024	0.726946	2	3.3442	12	0.000429643
2	1	0	0	1	278.921	0.636969	0.635964	2.33754	2	3.35016	11	0.00148659
2	1	0	1	1	283.422	0.681979	0.681949	7.51885	2	3.37086	11	0.00512747
2	1	0	1	1	287.954	0.72729	0.726048	16.3099	2	3.42372	10	0.0118418
2	1	0	0	1	292.455	0.7723	0.770244	28.0742	2	3.5228	10	0.021624
2	1	0	1	1	296.956	0.817311	0.818011	41.9216	2	3.67968	10	0.0342923
2	1	0	1	1	301.457	0.862321	0.862613	57.7798	2	3.90353	10	0.0498416
2	1	0	0	1	305.958	0.907332	0.907567	74.6253	2	4.20128	10	0.0677275
2	1	0	1	1	310.459	0.952343	0.952594	92.7058	2	4.57738	10	0.0883109
2	1	0	1	1	314.99	0.997653	0.997286	111.114	2	5.03897	9	0.110812
2	1	0	0	1	319.381	0.958444	0.958403	93.1623	2	5.49097	9	0.089287
2	1	0	1	1	323.882	0.913434	0.913344	74.8342	2	5.86821	9	0.0683494
2	1	0	1	1	328.384	0.868423	0.867254	58.2207	2	6.16748	9	0.0504922
2	1	0	0	1	332.915	0.823112	0.82294	42.8762	2	6.39586	10	0.0352845
2	1	0	1	1	337.416	0.778102	0.778324	29.5002	2	6.558	10	0.0229607
2	1	0	1	1	341.917	0.733091	0.73265	18.3534	2	6.66484	10	0.0134466
2	1	0	0	1	346.418	0.688081	0.688962	9.58701	2	6.7266	10	0.00660509
2	1	0	1	1	350.949	0.64277	0.642341	3.66344	2	6.75539	11	0.00235318
2	1	0	0	1	355.45	0.597759	0.59828	0.799811	2	6.76432	11	0.000478511
2	1	0	0	1	359.981	0.552449	0.551888	-0.0359976	2	6.76551	12	-1.98666e-05
[...]
2	0	0	1	1	404.992	0.102343	0.102511	-0.0623398	2	6.75796	12	-6.39052e-06
2	0	0	0	1	409.493	0.0573327	0.0574655	-0.0508073	2	6.7577	12	-2.91967e-06
2	0	0	1	1	413.994	0.0123222	0.0122057	-0.0434315	2	6.75749	12	-5.30112e-07
2	0	0	1	0	418.385	0.0315267	0.0317373	-0.0307209	3	6.75733	12	-9.74998e-07
2	0	0	0	0	422.886	0.0765372	0.0766269	-0.0238559	3	6.7572	12	-1.82801e-06
2	0	0	0	0	427.387	0.121548	0.120562	-0.0182384	3	6.75711	12	-2.19886e-06
2	1	0	1	0	431.888	0.166558	0.167793	-0.0114994	3	6.75705	12	-1.92951e-06
2	1	0	0	0	436.389	0.211569	0.211125	-0.00155237	3	6.75703	12	-3.27744e-07
2	1	0	1	0	440.89	0.256579	0.256012	0.0178264	3	6.75707	12	4.56379e-06
2	1	0	1	0	445.392	0.30159	0.302039	0.0554515	3	6.75723	12	1.67485e-05
2	1	0	0	0	449.893	0.346601	0.34758	0.107626	3	6.7576	12	3.74088e-05
2	1	0	1	0	454.394	0.391611	0.391833	0.185095	3	6.75826	12	7.25266e-05
2	1	0	1	0	458.895	0.436622	0.436111	0.25329	3	6.75927	12	0.000110462
2	1	0	0	0	463.396	0.481632	0.482386	0.324534	3	6.76056	12	0.000156551
2	1	0	1	0	467.897	0.526643	0.526259	0.40709	3	6.76221	12	0.000214235
2	1	0	1	0	472.398	0.571653	0.571788	0.532769	3	6.76429	12	0.000304631
2	1	0	0	0	476.929	0.616964	0.617454	1.24469	3	6.76782	11	0.000768541
2	1	0	1	0	481.43	0.661975	0.660988	4.63896	3	6.77971	11	0.0030663
2	1	0	1	0	485.961	0.707286	0.706614	11.7748	3	6.8156	10	0.00832026
2	1	0	0	0	490.462	0.752296	0.751537	22.0635	3	6.89072	10	0.0165815
2	1	0	1	0	494.963	0.797306	0.796767	34.7502	3	7.01778	10	0.0276878
2	1	0	0	0	499.464	0.842317	0.84357	49.5308	3	7.2067	10	0.0417827
2	1	0	0	0	503.965	0.887327	0.889064	66.0019	3	7.46668	10	0.0586799
2	1	0	1	0	508.466	0.932338	0.933564	83.3491	3	7.80306	10	0.0778117
2	1	0	0	0	512.967	0.977349	0.976077	101.911	3	8.22025	10	0.0994727
2	1	0	0	0	517.389	0.978449	0.978781	101.484	3	8.69085	9	0.0993308
2	1	0	1	0	521.89	0.933438	0.934624	82.5635	3	9.10425	9	0.0771659
2	1	0	0	0	526.391	0.888428	0.888635	65.1781	3	9.43636	9	0.0579196
2	1	0	0	0	530.892	0.843417	0.844441	49.1784	3	9.69291	9	0.0415283
2	1	0	1	0	535.423	0.798106	0.79994	34.7816	3	9.8825	10	0.0278232
2	1	0	0	0	539.924	0.753096	0.753281	22.6032	3	10.0108	10	0.0170266
2	1	0	1	0	544.425	0.708085	0.707647	12.8138	3	10.0895	10	0.00906763
2	1	0	1	0	548.926	0.663075	0.662185	5.75805	3	10.1302	10	0.00381289
2	1	0	0	0	553.457	0.617764	0.617084	1.67167	3	10.1458	11	0.00103156
2	1	0	1	0	557.988	0.572454	0.572875	0.160748	3	10.1493	12	9.20886e-05
2	0	0	1	0	562.49	0.527443	0.529614	-0.156755	3	10.1491	12	-8.30199e-05
2	0	0	0	0	566.991	0.482432	0.482752	-0.218096	3	10.1482	12	-0.000105286
2	0	0	1	0	571.492	0.437422	0.436827	-0.233175	3	10.1471	12	-0.000101857
2	0	0	1	0	575.993	0.392412	0.392367	-0.233501	3	10.1461	12	-9.16182e-05
2	0	0	0	0	580.494	0.347401	0.347847	-0.219931	3	10.145	12	-7.65024e-05
2	0	0	1	0	584.995	0.30239	0.300514	-0.201358	3	10.1441	12	-6.05109e-05
2	0	0	0	0	589.496	0.25738	0.257032	-0.169265	3	10.1432	12	-4.35065e-05
2	0	0	0	0	593.997	0.212369	0.212068	-0.130828	3	10.1425	12	-2.77443e-05
2	0	0	1	0	598.498	0.167359	0.166223	-0.0969452	3	10.142	12	-1.61145e-05
2	0	0	0	0	602.999	0.122348	0.12123	-0.0730535	3	10.1416	12	-8.85629e-06
2	0	0	1	0	607.5	0.0773383	0.0777979	-0.0580545	3	10.1413	12	-4.51652e-06
2	0	0	1	0	612.001	0.0323269	0.0325933	-0.0490442	3	10.141	12	-1.59851e-06
2	0	0	1	1	616.393	-0.0115834	-0.0111975	-0.0428899	3	10.1408	12	4.80258e-07
2	0	0	0	1	620.894	-0.056594	-0.0569802	-0.0386998	3	10.1407	12	2.20513e-06
2	0	0	0	1	625.395	-0.101605	-0.102989	-0.0358376	3	10.1405	12	3.69087e-06
2	0	0	1	1	629.896	-0.146615	-0.146675	-0.032781	3	10.1403	12	4.80814e-06
2	0	0	1	1	630.477	-0.152467	-0.152287	-0.0240654	3	10.1403	12	3.66484e-06