Folder: EC-Lab-Processing/Data (part 7)

File: 2025-02-10 exp 4 potential step -0,5 V_C05.mpt
EC-Lab ASCII FILE
Nb header lines : 62

Chronoamperometry / Chronocoulometry

Run on channel : 5 (SN 39658)
User :
CE vs. WE compliance from -10 V to 10 V
Electrode connection : standard
Potential control : Ewe
Ewe ctrl range : min = -2.50 V, max = 2.50 V
Safety Limits :
	Do not start on E overload
Acquisition started on : 02/10/2025 12:42:49.649
Loaded Setting File :  NONE
Saved on :
	File : 2025-02-10 exp2 potential step -0,5 V_C05.mpr
	Directory : C:\Users\thefo\OneDrive\Documents\EC-Lab\Data\CHEM 451\
	Host : 172.24.113.132
Device : VSP (SN 1910)
Address : USB
EC-Lab for windows v11.46 (software)
Internet server v11.40 (firmware)
Command interpretor v11.40 (firmware)
Electrode material :
Initial state :
Electrolyte :
Comments :
Current amplifier : VSPB-4A
Electrode surface area : 0.001 cm²
Characteristic mass : 0.001 g
Equivalent Weight : 0.000 g/eq.
Density : 0.000 g/cm3
Volume (V) : 0.001 cm³
Cycle Definition : Charge/Discharge alternance
Ei (V)              -0.500
vs.                 Ref
ti (h:m:s)          0:00:30.0000
Imax                pass
unit Imax           mA
Imin                pass
unit Imin           mA
dQM                 0.000
unit dQM            mA.h
record              <I>
dI                  5.000
unit dI             µA
dQ                  0.000
unit dQ             mA.h
dt (s)              0.1000
dta (s)             0.1000
E range min (V)     -2.500
E range max (V)     2.500
I Range             Auto
I Range min         Unset
I Range max         Unset
I Range init        Unset
Bandwidth           4
goto Ns'            0
nc cycles           0

mode	ox/red	error	control changes	Ns changes	counter inc.	Ns	time/s	control/V	Ewe/V	<I>/mA	dQ/C	(Q-Qo)/C	I Range	Q charge/discharge/mA.h	half cycle	Energy charge/W.h	Energy discharge/W.h	Capacitance charge/µF	Capacitance discharge/µF	Q discharge/mA.h	Q charge/mA.h	Capacity/mA.h	Efficiency/%	cycle number	P/W
2	0	0	0	0	0	0	0.1	-0.499978	-0.499796	-0.226418	-1.68425e-05	-1.68425e-05	12	-4.67848e-06	0	0.000000000000000E+000	2.33828e-09	0.000000000000000E+000	0.000000000000000E+000	4.67848e-06	0.000000000000000E+000	4.67848e-06	0.0000000E+000	0.000000000000000E+000	0.000113163
2	0	0	0	0	0	0	0.9	-0.499978	-0.499815	-0.0625786	-9.30031e-05	-9.30031e-05	12	-2.58342e-05	0	0.000000000000000E+000	1.29134e-08	0.000000000000000E+000	4.86844e+06	2.58342e-05	0.000000000000000E+000	2.58342e-05	0.0000000E+000	0.000000000000000E+000	3.12777e-05
2	0	0	0	0	0	0	1.7	-0.499978	-0.499968	-0.0429124	-0.000132928	-0.000132928	13	-3.69245e-05	0	0.000000000000000E+000	1.84574e-08	0.000000000000000E+000	773423	3.69245e-05	0.000000000000000E+000	3.69245e-05	0.0000000E+000	0.000000000000000E+000	2.14548e-05
2	0	0	0	0	0	0	2.5	-0.499978	-0.500044	-0.0343771	-0.000163065	-0.000163065	13	-4.52957e-05	0	0.000000000000000E+000	2.26426e-08	0.000000000000000E+000	656927	4.52957e-05	0.000000000000000E+000	4.52957e-05	0.0000000E+000	0.000000000000000E+000	1.71901e-05
2	0	0	0	0	0	0	3.3	-0.499978	-0.499815	-0.0294582	-0.000188201	-0.000188201	13	-5.2278e-05	0	0.000000000000000E+000	2.61329e-08	0.000000000000000E+000	9.85176e+06	5.2278e-05	0.000000000000000E+000	5.2278e-05	0.0000000E+000	0.000000000000000E+000	1.47237e-05
2	0	0	0	0	0	0	4.1	-0.499978	-0.499834	-0.0261976	-0.000210224	-0.000210224	13	-5.83957e-05	0	0.000000000000000E+000	2.91907e-08	0.000000000000000E+000	5.50231e+06	5.83957e-05	0.000000000000000E+000	5.83957e-05	0.0000000E+000	0.000000000000000E+000	1.30944e-05
2	0	0	0	0	0	0	4.9	-0.499978	-0.499853	-0.0238435	-0.00023008	-0.00023008	13	-6.39111e-05	0	0.000000000000000E+000	3.19476e-08	0.000000000000000E+000	4.01675e+06	6.39111e-05	0.000000000000000E+000	6.39111e-05	0.0000000E+000	0.000000000000000E+000	1.19182e-05
2	0	0	0	0	0	0	5.7	-0.499978	-0.499796	-0.0220373	-0.000248312	-0.000248312	13	-6.89756e-05	0	0.000000000000000E+000	3.44791e-08	0.000000000000000E+000	0.000000000000000E+000	6.89756e-05	0.000000000000000E+000	6.89756e-05	0.0000000E+000	0.000000000000000E+000	1.10142e-05
2	0	0	0	0	0	0	6.5	-0.499978	-0.499872	-0.0206078	-0.000265278	-0.000265278	13	-7.36883e-05	0	0.000000000000000E+000	3.68349e-08	0.000000000000000E+000	3.47298e+06	7.36883e-05	0.000000000000000E+000	7.36883e-05	0.0000000E+000	0.000000000000000E+000	1.03013e-05
2	0	0	0	0	0	0	7.3	-0.499978	-0.499834	-0.0194336	-0.000281222	-0.000281222	13	-7.81173e-05	0	0.000000000000000E+000	3.90487e-08	0.000000000000000E+000	7.36057e+06	7.81173e-05	0.000000000000000E+000	7.81173e-05	0.0000000E+000	0.000000000000000E+000	9.71358e-06
2	0	0	0	0	0	0	8.1	-0.499978	-0.49993	-0.0184473	-0.000296316	-0.000296316	13	-8.23099e-05	0	0.000000000000000E+000	4.11443e-08	0.000000000000000E+000	2.21688e+06	8.23099e-05	0.000000000000000E+000	8.23099e-05	0.0000000E+000	0.000000000000000E+000	9.22237e-06
2	0	0	0	0	0	0	8.9	-0.499978	-0.499968	-0.0175978	-0.000310684	-0.000310684	13	-8.63012e-05	0	0.000000000000000E+000	4.31397e-08	0.000000000000000E+000	1.80767e+06	8.63012e-05	0.000000000000000E+000	8.63012e-05	0.0000000E+000	0.000000000000000E+000	8.79833e-06
2	0	0	0	0	0	0	9.7	-0.499978	-0.499815	-0.0168531	-0.00032442	-0.00032442	13	-9.01167e-05	0	0.000000000000000E+000	4.50469e-08	0.000000000000000E+000	1.69824e+07	9.01167e-05	0.000000000000000E+000	9.01167e-05	0.0000000E+000	0.000000000000000E+000	8.42346e-06
2	0	0	0	0	0	0	10.5	-0.499978	-0.499891	-0.0162131	-0.00033761	-0.00033761	13	-9.37805e-05	0	0.000000000000000E+000	4.68783e-08	0.000000000000000E+000	3.53568e+06	9.37805e-05	0.000000000000000E+000	9.37805e-05	0.0000000E+000	0.000000000000000E+000	8.1048e-06
2	0	0	0	0	0	0	11.3	-0.499978	-0.499815	-0.0156383	-0.000350318	-0.000350318	13	-9.73104e-05	0	0.000000000000000E+000	4.86428e-08	0.000000000000000E+000	1.83381e+07	9.73104e-05	0.000000000000000E+000	9.73104e-05	0.0000000E+000	0.000000000000000E+000	7.81626e-06
2	0	0	0	0	0	0	12.1	-0.499978	-0.499853	-0.0151356	-0.000362596	-0.000362596	13	-0.000100721	0	0.000000000000000E+000	5.03477e-08	0.000000000000000E+000	6.33023e+06	0.000100721	0.000000000000000E+000	0.000100721	0.0000000E+000	0.000000000000000E+000	7.56555e-06
2	0	0	0	0	0	0	12.9	-0.499978	-0.499853	-0.0146816	-0.000374498	-0.000374498	13	-0.000104027	0	0.000000000000000E+000	5.20003e-08	0.000000000000000E+000	6.53801e+06	0.000104027	0.000000000000000E+000	0.000104027	0.0000000E+000	0.000000000000000E+000	7.33866e-06
2	0	0	0	0	0	0	13.7	-0.499978	-0.499834	-0.0142701	-0.000386055	-0.000386055	13	-0.000107237	0	0.000000000000000E+000	5.3605e-08	0.000000000000000E+000	1.01044e+07	0.000107237	0.000000000000000E+000	0.000107237	0.0000000E+000	0.000000000000000E+000	7.13267e-06
2	0	0	0	0	0	0	14.5	-0.499978	-0.499834	-0.0138942	-0.000397298	-0.000397298	13	-0.000110361	0	0.000000000000000E+000	5.51662e-08	0.000000000000000E+000	1.03987e+07	0.000110361	0.000000000000000E+000	0.000110361	0.0000000E+000	0.000000000000000E+000	6.9448e-06
2	0	0	0	0	0	0	15.3	-0.499978	-0.499872	-0.0135501	-0.000408258	-0.000408258	13	-0.000113405	0	0.000000000000000E+000	5.66881e-08	0.000000000000000E+000	5.34486e+06	0.000113405	0.000000000000000E+000	0.000113405	0.0000000E+000	0.000000000000000E+000	6.77334e-06
[...]
2	0	0	0	0	0	0	20.1	-0.499978	-0.499834	-0.0119414	-0.000469065	-0.000469065	13	-0.000130296	0	0.000000000000000E+000	6.51312e-08	0.000000000000000E+000	1.22771e+07	0.000130296	0.000000000000000E+000	0.000130296	0.0000000E+000	0.000000000000000E+000	5.96873e-06
2	0	0	0	0	0	0	20.9	-0.499978	-0.499834	-0.0117353	-0.000478524	-0.000478524	13	-0.000132923	0	0.000000000000000E+000	6.64445e-08	0.000000000000000E+000	1.25246e+07	0.000132923	0.000000000000000E+000	0.000132923	0.0000000E+000	0.000000000000000E+000	5.86571e-06
2	0	0	0	0	0	0	21.7	-0.499978	-0.499796	-0.0115255	-0.000487818	-0.000487818	13	-0.000135505	0	0.000000000000000E+000	6.7735e-08	0.000000000000000E+000	0.000000000000000E+000	0.000135505	0.000000000000000E+000	0.000135505	0.0000000E+000	0.000000000000000E+000	5.76042e-06
2	0	0	0	0	0	0	22.5	-0.499978	-0.499739	-0.0113207	-0.000496945	-0.000496945	13	-0.00013804	0	0.000000000000000E+000	6.90021e-08	0.000000000000000E+000	8.6757e+06	0.00013804	0.000000000000000E+000	0.00013804	0.0000000E+000	0.000000000000000E+000	5.65737e-06
2	0	0	0	0	0	0	23.3	-0.499978	-0.499872	-0.0111414	-0.00050592	-0.00050592	13	-0.000140533	0	0.000000000000000E+000	7.02483e-08	0.000000000000000E+000	6.62344e+06	0.000140533	0.000000000000000E+000	0.000140533	0.0000000E+000	0.000000000000000E+000	5.56929e-06
2	0	0	0	0	0	0	24.1	-0.499978	-0.499796	-0.0109273	-0.000514734	-0.000514734	13	-0.000142982	0	0.000000000000000E+000	7.1472e-08	0.000000000000000E+000	0.000000000000000E+000	0.000142982	0.000000000000000E+000	0.000142982	0.0000000E+000	0.000000000000000E+000	5.4614e-06
2	0	0	0	0	0	0	24.9	-0.499978	-0.499949	-0.0107303	-0.000523384	-0.000523384	13	-0.000145384	0	0.000000000000000E+000	7.26731e-08	0.000000000000000E+000	3.42603e+06	0.000145384	0.000000000000000E+000	0.000145384	0.0000000E+000	0.000000000000000E+000	5.36458e-06
2	0	0	0	0	0	0	25.7	-0.499978	-0.499777	-0.0105662	-0.00053189	-0.00053189	13	-0.000147747	0	0.000000000000000E+000	7.38543e-08	0.000000000000000E+000	2.78429e+07	0.000147747	0.000000000000000E+000	0.000147747	0.0000000E+000	0.000000000000000E+000	5.28073e-06
2	0	0	0	0	0	0	26.5	-0.499978	-0.499949	-0.010402	-0.000540267	-0.000540267	13	-0.000150074	0	0.000000000000000E+000	7.50175e-08	0.000000000000000E+000	3.53655e+06	0.000150074	0.000000000000000E+000	0.000150074	0.0000000E+000	0.000000000000000E+000	5.20048e-06
2	0	0	0	0	0	0	27.3	-0.499978	-0.499815	-0.0102578	-0.000548523	-0.000548523	13	-0.000152367	0	0.000000000000000E+000	7.61639e-08	0.000000000000000E+000	2.87135e+07	0.000152367	0.000000000000000E+000	0.000152367	0.0000000E+000	0.000000000000000E+000	5.12698e-06
2	0	0	0	0	0	0	28.1	-0.499978	-0.499853	-0.0101232	-0.000556667	-0.000556667	13	-0.00015463	0	0.000000000000000E+000	7.72947e-08	0.000000000000000E+000	9.71833e+06	0.00015463	0.000000000000000E+000	0.00015463	0.0000000E+000	0.000000000000000E+000	5.06013e-06
2	0	0	0	0	0	0	28.9	-0.499978	-0.499949	-0.00999148	-0.000564707	-0.000564707	13	-0.000156863	0	0.000000000000000E+000	7.84111e-08	0.000000000000000E+000	3.69653e+06	0.000156863	0.000000000000000E+000	0.000156863	0.0000000E+000	0.000000000000000E+000	4.99523e-06
2	0	0	0	0	0	0	29.7	-0.499978	-0.49991	-0.00985751	-0.000572639	-0.000572639	13	-0.000159066	0	0.000000000000000E+000	7.95126e-08	0.000000000000000E+000	4.99729e+06	0.000159066	0.000000000000000E+000	0.000159066	0.0000000E+000	0.000000000000000E+000	4.92787e-06
2	0	0	0	0	0	0	29.9998	-0.499978	-0.49993	-0.00980795	-0.000575585	-0.000575585	13	-0.000159885	0	0.000000000000000E+000	7.99216e-08	0.000000000000000E+000	4.30622e+06	0.000159885	0.000000000000000E+000	0.000159885	0.0000000E+000	0.000000000000000E+000	4.90328e-06

File: 2025-02-10 exp 5 CV 10mvs_C05.mpt
EC-Lab ASCII FILE
Nb header lines : 62

Cyclic Voltammetry

Run on channel : 5 (SN 39658)
User :
CE vs. WE compliance from -10 V to 10 V
Electrode connection : standard
Potential control : Ewe
Ewe ctrl range : min = -2.50 V, max = 2.50 V
Safety Limits :
	Do not start on E overload
Acquisition started on : 02/10/2025 12:51:22.971
Loaded Setting File :  NONE
Saved on :
	File : 2025-02-10 exp 5 CV 10mvs_C05.mpr
	Directory : C:\Users\thefo\OneDrive\Documents\EC-Lab\Data\CHEM 451\
	Host : 172.24.113.132
Device : VSP (SN 1910)
Address : USB
EC-Lab for windows v11.46 (software)
Internet server v11.40 (firmware)
Command interpretor v11.40 (firmware)
Electrode material : Au/Pd
Initial state :
Electrolyte : NaCl (0.2M)
Comments : Fe(CN)63-/Fe(CN)64- 5.10-3 M
Current amplifier : VSPB-4A
Reference electrode : SCE Saturated Calomel Electrode (0.241 V)
Electrode surface area : 0.001 cm²
Characteristic mass : 0.001 g
Equivalent Weight : 0.000 g/eq.
Density : 0.000 g/cm3
Volume (V) : 0.001 cm³
Cycle Definition : Charge/Discharge alternance
Ei (V)              0.000
vs.                 Eoc
dE/dt               10.000
dE/dt unit          mV/s
E1 (V)              -0.200
vs.                 Ref
Step percent        50
N                   10
E range min (V)     -2.500
E range max (V)     2.500
I Range             Auto
I Range min         Unset
I Range max         Unset
I Range init        Unset
Bandwidth           4
E2 (V)              0.500
vs.                 Ref
nc cycles           0
Reverse Scan        1
Ef (V)              0.000
vs.                 Eoc

Modify on : 02/10/2025 12:53
vs.                 Ref

mode	ox/red	error	control changes	counter inc.	time/s	control/V	Ewe/V	<I>/mA	cycle number	(Q-Qo)/C	I Range	P/W
2	1	0	0	0	0.000000000000000E+000	0.26307	0.26334	0.00015445	1	0.0000000E+000	14	4.06729e-08
2	0	0	1	0	1.3556	0.249515	0.249702	-0.00339978	1	-2.84727e-06	14	-8.48932e-07
2	0	0	1	0	2.756	0.235511	0.235723	-0.00571982	1	-9.2925e-06	14	-1.34829e-06
2	0	0	1	0	4.1564	0.221506	0.221698	-0.00792173	1	-1.89088e-05	14	-1.75623e-06
2	0	0	1	0	5.5569	0.207501	0.207624	-0.00978847	1	-3.14069e-05	14	-2.03232e-06
2	0	0	0	0	6.9874	0.193197	0.193437	-0.0109996	1	-4.64494e-05	13	-2.12773e-06
2	0	0	0	0	8.3878	0.179192	0.179396	-0.0115908	1	-6.24935e-05	13	-2.07934e-06
2	0	0	0	0	9.7882	0.165188	0.165403	-0.0115092	1	-7.887e-05	13	-1.90366e-06
2	0	0	1	0	11.1887	0.151184	0.151385	-0.010953	1	-9.47451e-05	13	-1.65813e-06
2	0	0	1	0	12.5892	0.137179	0.137354	-0.0103105	1	-0.000109736	13	-1.41619e-06
2	0	0	1	0	13.9896	0.123174	0.12338	-0.00972091	1	-0.00012385	13	-1.19937e-06
2	0	0	1	0	15.39	0.10917	0.109329	-0.00921174	1	-0.000137188	13	-1.00711e-06
2	0	0	0	0	16.7906	0.0951651	0.0953626	-0.00877848	1	-0.000149863	13	-8.37138e-07
2	0	0	0	0	18.191	0.0811606	0.0813808	-0.00840848	1	-0.000161976	13	-6.84288e-07
2	0	0	0	0	19.5914	0.067156	0.067349	-0.00810362	1	-0.000173617	13	-5.45771e-07
2	0	0	1	0	20.9919	0.0531508	0.0533464	-0.00783971	1	-0.000184861	13	-4.1822e-07
2	0	0	1	0	22.3924	0.039147	0.0393769	-0.00761958	1	-0.000195769	13	-3.00035e-07
2	0	0	1	0	23.7928	0.0251424	0.0253356	-0.0074311	1	-0.00020639	13	-1.88271e-07
2	0	0	1	0	25.1932	0.0111379	0.0113209	-0.00726618	1	-0.000216765	13	-8.22595e-08
2	0	0	1	0	26.5937	-0.0028662	-0.0026562	-0.00712298	1	-0.000226927	13	1.89201e-08
2	0	0	0	0	27.9942	-0.0168712	-0.0167224	-0.00700618	1	-0.000236912	13	1.1716e-07
2	0	0	0	0	29.3946	-0.0308757	-0.0307647	-0.00689958	1	-0.000246731	13	2.12264e-07
2	0	0	0	0	30.795	-0.0448803	-0.0447805	-0.00679599	1	-0.000256409	13	3.04328e-07
2	0	0	1	0	32.1956	-0.0588848	-0.0587348	-0.0067157	1	-0.00026596	13	3.94445e-07
2	0	0	1	0	33.596	-0.0728893	-0.0727835	-0.00663879	1	-0.0002754	13	4.83194e-07
2	0	0	1	0	34.9964	-0.0868939	-0.0867897	-0.00656901	1	-0.000284738	13	5.70123e-07
2	0	0	1	0	36.3968	-0.100898	-0.100781	-0.00650721	1	-0.000293985	13	6.55804e-07
2	0	0	0	0	37.7974	-0.114903	-0.114768	-0.00645129	1	-0.000303153	13	7.40403e-07
2	0	0	0	0	39.1978	-0.128908	-0.128751	-0.00640249	1	-0.000312247	13	8.24328e-07
2	0	0	0	0	40.5982	-0.142912	-0.142804	-0.00636218	1	-0.000321279	13	9.08546e-07
2	0	0	1	0	41.9987	-0.156917	-0.156799	-0.00632967	1	-0.000330257	13	9.92485e-07
2	0	0	1	0	43.3992	-0.170921	-0.170777	-0.00630744	1	-0.000339193	13	1.07717e-06
2	0	0	1	0	44.7996	-0.184926	-0.184806	-0.00628749	1	-0.000348097	13	1.16197e-06
2	0	0	1	0	46.2	-0.19893	-0.19882	-0.00628546	1	-0.000356988	13	1.24967e-06
2	0	0	1	0	47.4608	-0.188427	-0.188346	-0.00490264	1	-0.000363756	13	9.23395e-07
2	0	0	0	0	48.8914	-0.174122	-0.174057	-0.0043067	1	-0.000370213	14	7.4961e-07
2	0	0	0	0	50.2918	-0.160118	-0.159979	-0.00393401	1	-0.000375884	14	6.2936e-07
2	0	0	0	0	51.6922	-0.146113	-0.145949	-0.00365842	1	-0.000381108	14	5.33942e-07
2	0	0	1	0	53.0927	-0.132109	-0.131986	-0.00343212	1	-0.000385982	14	4.52991e-07
2	0	0	1	0	54.4932	-0.118104	-0.117962	-0.00324103	1	-0.000390569	14	3.82317e-07
2	0	0	1	0	55.8936	-0.104099	-0.103988	-0.00308335	1	-0.000394912	14	3.20632e-07
2	0	0	1	0	57.294	-0.0900949	-0.0899831	-0.00294204	1	-0.000399043	14	2.64734e-07
2	0	0	0	0	58.6946	-0.0760904	-0.0759938	-0.00281946	1	-0.000402991	14	2.14262e-07
2	0	0	0	0	60.095	-0.0620858	-0.0619727	-0.00271232	1	-0.000406777	14	1.6809e-07
2	0	0	0	0	61.4954	-0.0480813	-0.0479612	-0.00262018	1	-0.00041042	14	1.25667e-07
2	0	0	1	0	62.8959	-0.0340759	-0.0339581	-0.0025342	1	-0.000413938	14	8.60565e-08
2	0	0	1	0	64.2964	-0.0200722	-0.0199486	-0.00245622	1	-0.000417344	14	4.89983e-08
2	0	0	1	0	65.6968	-0.00606768	-0.00595831	-0.00238807	1	-0.00042065	14	1.42288e-08
2	0	0	1	0	67.0972	0.00793685	0.00814236	-0.00232462	1	-0.000423857	14	-1.89279e-08
2	0	0	1	0	68.4977	0.0219414	0.0221349	-0.00226443	1	-0.000426981	14	-5.0123e-08
2	0	0	0	0	69.8982	0.0359459	0.0361389	-0.00220107	1	-0.000430018	14	-7.95442e-08
2	0	0	0	0	71.2986	0.0499505	0.0501505	-0.00213221	1	-0.000432964	14	-1.06931e-07
2	0	0	0	0	72.699	0.063955	0.0641907	-0.00205322	1	-0.000435808	14	-1.31798e-07
2	0	0	1	0	74.0996	0.0779595	0.0781672	-0.00195087	1	-0.000438529	14	-1.52494e-07
2	0	0	1	0	75.5	0.0919641	0.0921926	-0.00182078	1	-0.000441086	14	-1.67863e-07
2	0	0	1	0	76.9004	0.105969	0.106133	-0.00162476	1	-0.000443421	14	-1.72441e-07
2	0	0	1	0	78.3008	0.119973	0.120124	-0.00133601	1	-0.000445427	14	-1.60487e-07
2	0	0	0	0	79.7014	0.133978	0.134185	-0.000900117	1	-0.000446936	14	-1.20782e-07
2	0	0	0	0	81.1018	0.147982	0.148215	-0.000231299	1	-0.000447689	14	-3.4282e-08
2	1	0	0	0	82.5022	0.161987	0.162155	0.000748626	1	-0.000447307	14	1.21393e-07
2	1	0	1	0	83.9027	0.175992	0.176208	0.00211456	1	-0.000445298	14	3.72604e-07
2	1	0	1	0	85.3032	0.189996	0.190228	0.00386451	1	-0.000441106	14	7.35137e-07
2	1	0	1	0	86.7036	0.204	0.204201	0.00582387	1	-0.000434287	14	1.18924e-06
2	1	0	1	0	88.104	0.218005	0.218249	0.0075743	1	-0.000424808	14	1.65308e-06
2	1	0	1	0	89.5045	0.232009	0.232263	0.00868653	1	-0.000413294	14	2.01756e-06
2	1	0	0	0	90.905	0.246014	0.246205	0.00905249	1	-0.000400747	14	2.22877e-06
2	1	0	0	0	92.3054	0.260018	0.260207	0.00887365	1	-0.000388089	14	2.30899e-06
2	1	0	0	0	93.7058	0.274023	0.274261	0.00835111	1	-0.00037595	14	2.29039e-06
2	1	0	1	0	95.1064	0.288028	0.288218	0.00770562	1	-0.000364633	14	2.2209e-06
2	1	0	1	0	96.5068	0.302032	0.302243	0.0070892	1	-0.000354207	14	2.14266e-06
[...]
2	1	0	1	0	104.909	0.386059	0.386296	0.00463922	1	-0.000305851	14	1.79211e-06
2	1	0	1	0	106.31	0.400064	0.400277	0.0044018	1	-0.000299428	14	1.76194e-06
2	1	0	1	0	107.71	0.414068	0.414286	0.00420757	1	-0.000293304	14	1.74314e-06
2	1	0	1	0	109.111	0.428073	0.428333	0.00404483	1	-0.000287432	14	1.73253e-06
2	1	0	0	0	110.511	0.442077	0.442333	0.00391023	1	-0.000281766	14	1.72962e-06
2	1	0	0	0	111.912	0.456082	0.456345	0.00379666	1	-0.000276273	14	1.73259e-06
2	1	0	0	0	113.312	0.470086	0.470323	0.00370499	1	-0.000270923	14	1.74254e-06
2	1	0	0	0	114.713	0.484091	0.484355	0.00362413	1	-0.000265693	14	1.75536e-06
2	1	0	1	0	116.113	0.498095	0.498329	0.00355644	1	-0.000260566	14	1.77228e-06
2	1	0	1	1	117.264	0.490393	0.49058	0.00254113	1	-0.000257171	14	1.24663e-06
2	1	0	1	1	118.664	0.476388	0.476638	0.00198598	1	-0.000254139	14	9.46594e-07
2	1	0	1	1	120.065	0.462384	0.46261	0.00162499	1	-0.000251729	14	7.51735e-07
2	1	0	1	1	121.465	0.448379	0.448609	0.00134721	1	-0.00024976	14	6.04369e-07
2	1	0	0	1	122.866	0.434375	0.434585	0.00112141	1	-0.000248141	14	4.8735e-07
2	1	0	0	1	124.266	0.42037	0.420647	0.000928559	1	-0.000246815	14	3.90595e-07
2	1	0	0	1	125.667	0.406366	0.406633	0.000752953	1	-0.000245747	14	3.06175e-07
2	1	0	1	1	127.067	0.392361	0.392581	0.000580971	1	-0.00024492	14	2.28078e-07
2	1	0	1	1	128.468	0.378357	0.378537	0.000415746	1	-0.000244325	14	1.57375e-07
2	1	0	1	1	129.868	0.364352	0.364552	0.000234578	1	-0.000243972	14	8.55158e-08
2	1	0	1	1	131.268	0.350348	0.350587	3.09021e-05	1	-0.000243884	14	1.08339e-08
2	0	0	1	1	132.669	0.336344	0.33656	-0.000216918	1	-0.000244107	14	-7.30059e-08
2	0	0	0	1	134.069	0.322339	0.322547	-0.000526671	1	-0.000244711	14	-1.69876e-07
2	0	0	0	1	135.47	0.308334	0.308579	-0.000931944	1	-0.000245808	14	-2.87578e-07
2	0	0	0	1	136.87	0.29433	0.294543	-0.0014869	1	-0.000247563	14	-4.37956e-07
2	0	0	1	1	138.271	0.280325	0.28053	-0.00225529	1	-0.000250227	14	-6.32676e-07
2	0	0	1	1	139.671	0.266321	0.266513	-0.00332312	1	-0.000254156	14	-8.85656e-07
2	0	0	1	1	141.072	0.252316	0.252543	-0.00475434	1	-0.000259825	14	-1.20067e-06
2	0	0	1	1	142.472	0.238311	0.238525	-0.00655056	1	-0.000267756	14	-1.56247e-06
2	0	0	0	1	143.873	0.224307	0.224507	-0.0084957	1	-0.00027833	14	-1.90735e-06
2	0	0	0	1	145.273	0.210302	0.210484	-0.0102711	1	-0.000291545	14	-2.16189e-06
2	0	0	0	1	146.703	0.195998	0.196244	-0.0115163	1	-0.000307284	13	-2.26001e-06
2	0	0	1	1	148.104	0.181994	0.182138	-0.0121306	1	-0.000324054	13	-2.20945e-06
2	0	0	1	1	149.504	0.167989	0.168194	-0.0121094	1	-0.000341231	13	-2.03672e-06
2	0	0	1	1	150.905	0.153984	0.154165	-0.0115527	1	-0.000357957	13	-1.78102e-06
2	0	0	1	1	152.305	0.13998	0.140181	-0.0107954	1	-0.000373701	13	-1.51331e-06
2	0	0	0	1	153.706	0.125975	0.126187	-0.0101243	1	-0.000388441	13	-1.27755e-06
2	0	0	0	1	155.106	0.111971	0.11217	-0.00954446	1	-0.000402299	13	-1.0706e-06
2	0	0	0	1	156.507	0.097966	0.0982005	-0.0090468	1	-0.0004154	13	-8.88401e-07
2	0	0	1	1	157.907	0.083961	0.0841641	-0.00863513	1	-0.00042786	13	-7.26768e-07
2	0	0	1	1	159.308	0.0699569	0.0701287	-0.00828566	1	-0.000439783	13	-5.81062e-07
2	0	0	1	1	160.708	0.0559524	0.0561245	-0.00798813	1	-0.000451253	13	-4.4833e-07
2	0	0	1	1	162.108	0.0419479	0.0421109	-0.00773826	1	-0.000462343	13	-3.25865e-07
2	0	0	1	1	163.509	0.0279438	0.0281239	-0.00752054	1	-0.000473109	13	-2.11506e-07
2	0	0	0	1	164.909	0.0139388	0.0141291	-0.00733798	1	-0.000483598	13	-1.03679e-07
2	0	0	0	1	166.28	0.000234361	0.000380681	-0.00718725	1	-0.000493631	13	-2.73605e-09
2	0	0	0	1	166.298	-1.57199e-05	0.000266102	-0.00733095	1	-0.000493766	13	-1.95078e-09