Folder: EC-Lab-Processing/Data_1

File: 2022_01_24 Co50Ni25Fe25Nx elec1 set1.1_01_CV_C02.mpt
EC-Lab ASCII FILE
Nb header lines : 57

Cyclic Voltammetry

Run on channel : 2 (SN 12477)
User :
CE vs. WE compliance from -10 V to 10 V
Electrode connection : standard
Potential control : Ewe
Ewe ctrl range : min = -2.50 V, max = 2.50 V
Safety Limits :
	Do not start on E overload
Acquisition started on : 01/24/2023 12:28:09.319
Loaded Setting File :  C:\Users\grupogalan\Documents\EC-Lab\Data\Lole Jurado\2023_01_23_CoNiFeNx_400ºC_24h_electrode1__set2_20012023_1.mps
Saved on :
	File : 2022_01_24 Co50Ni25Fe25Nx elec1 set1.1_01_CV_C02.mpr
	Directory : C:\Users\grupogalan\Documents\EC-Lab\Data\Scott\
	Host : 169.254.104.159
Device : VSP (SN 1176)
Address : USB
EC-Lab for windows v11.46 (software)
Internet server v11.40 (firmware)
Command interpretor v11.40 (firmware)
Electrode material :
Initial state :
Electrolyte :
Comments :
Electrode surface area : 0.000 cm²
Characteristic mass : 0.001 g
Equivalent Weight : 0.000 g/eq.
Density : 0.000 g/cm3
Volume (V) : 0.001 cm³
Cycle Definition : Charge/Discharge alternance
Ei (V)              0.000
vs.                 Eoc
dE/dt               10.000
dE/dt unit          mV/s
E1 (V)              1.000
vs.                 Ref
Step percent        50
N                   10
E range min (V)     -2.500
E range max (V)     2.500
I Range             Auto
I Range min         Unset
I Range max         Unset
I Range init        Unset
Bandwidth           5
E2 (V)              0.000
vs.                 Ref
nc cycles           2
Reverse Scan        1
Ef (V)              0.000
vs.                 Eoc

mode	ox/red	error	control changes	counter inc.	time/s	control/V	Ewe/V	<I>/mA	cycle number	(Q-Qo)/C	I Range	P/W
2	1	0	1	0	0.000000000000000E+000	-0.142864	-0.140897	0.0108378	1	0.0000000E+000	13	-1.52701e-06
2	1	0	0	0	4.456	-0.0983038	-0.0993931	0.00269842	1	7.44065e-06	13	-2.68204e-07
2	1	0	1	0	8.957	-0.0532932	-0.052661	0.00364902	1	2.27657e-05	13	-1.92161e-07
2	0	0	0	0	13.458	-0.00828266	-0.00857963	0.00401532	1	4.06669e-05	13	-3.445e-08
2	1	0	0	0	17.9592	0.0367279	0.0354827	0.00463723	1	6.07456e-05	13	1.64541e-07
2	1	0	1	0	22.4602	0.0817385	0.0798759	0.00558728	1	8.37308e-05	13	4.46289e-07
2	1	0	0	0	26.9612	0.126749	0.128587	0.0120637	1	0.000119663	13	1.55124e-06
2	1	0	1	0	31.4623	0.17176	0.170741	0.0260881	1	0.000208921	13	4.45431e-06
2	1	0	1	0	35.9634	0.21677	0.21644	0.0329548	1	0.000345556	13	7.13275e-06
2	1	0	0	0	40.4644	0.261781	0.262761	0.0418428	1	0.000516784	13	1.09946e-05
2	1	0	1	0	44.9654	0.306791	0.30611	0.0600437	1	0.000748887	13	1.838e-05
2	1	0	1	0	49.4966	0.352102	0.351085	0.0978287	1	0.00110592	12	3.43462e-05
2	1	0	0	0	53.9976	0.397112	0.395644	0.17112	1	0.00170012	12	6.77028e-05
2	1	0	1	0	58.4986	0.442123	0.441193	0.301061	1	0.00274879	12	0.000132826
2	1	0	1	0	62.9997	0.487133	0.486453	0.48359	1	0.00451043	12	0.000235244
2	1	0	0	0	67.5008	0.532144	0.530966	0.71065	1	0.00719941	12	0.00037733
2	1	0	1	0	72.0018	0.577155	0.576124	0.992198	1	0.0110255	12	0.000571629
2	1	0	0	0	76.5328	0.622465	0.622461	1.50396	1	0.0165185	11	0.000936156
2	1	0	0	0	81.034	0.667476	0.667607	3.58121	1	0.0269187	11	0.00239084
2	1	0	1	0	85.535	0.712486	0.713474	9.00238	1	0.0540389	11	0.00642297
2	1	0	0	0	90.066	0.757797	0.758064	17.198	1	0.112663	10	0.0130372
2	1	0	0	0	94.5672	0.802808	0.801209	27.0376	1	0.211733	10	0.0216628
2	1	0	1	0	99.0682	0.847818	0.847224	38.1891	1	0.358007	10	0.0323547
2	1	0	0	0	103.569	0.892829	0.890234	50.7115	1	0.557933	10	0.0451452
2	1	0	1	0	108.07	0.93784	0.938114	64.1128	1	0.816294	10	0.0601451
2	1	0	1	0	112.571	0.98285	0.984272	78.4973	1	1.13766	10	0.0772627
2	1	0	0	0	116.943	0.973448	0.974277	74.8901	1	1.48778	10	0.0729638
2	1	0	0	0	121.444	0.928437	0.927398	60.2091	1	1.79115	10	0.0558377
2	1	0	1	0	125.945	0.883427	0.881582	46.7077	1	2.03103	10	0.0411767
2	1	0	0	0	130.446	0.838416	0.838759	35.122	1	2.21479	10	0.0294589
2	1	0	1	0	134.947	0.793406	0.795762	24.7266	1	2.34889	10	0.0196765
2	1	0	1	0	139.448	0.748395	0.749862	15.9061	1	2.43969	10	0.0119273
2	1	0	0	0	143.949	0.703384	0.703038	8.88919	1	2.49473	10	0.00624944
2	1	0	1	0	148.48	0.658074	0.657514	3.8634	1	2.52276	11	0.00254024
2	1	0	1	0	152.981	0.613063	0.611769	1.10118	1	2.53308	11	0.000673667
2	1	0	0	0	157.512	0.567752	0.566801	0.118245	1	2.53532	12	6.70214e-05
2	0	0	1	0	162.013	0.522742	0.523076	-0.0979664	1	2.53522	12	-5.12439e-05
2	0	0	1	0	166.515	0.477731	0.477717	-0.14957	1	2.53461	12	-7.14522e-05
2	0	0	0	0	171.016	0.432721	0.433093	-0.162517	1	2.53389	12	-7.0385e-05
2	0	0	1	0	175.517	0.38771	0.385805	-0.159602	1	2.53314	12	-6.15752e-05
2	0	0	1	0	180.018	0.342699	0.342372	-0.147919	1	2.53244	12	-5.06433e-05
2	0	0	0	0	184.519	0.297689	0.29616	-0.131969	1	2.5318	12	-3.90839e-05
2	0	0	1	0	189.02	0.252679	0.250915	-0.10774	1	2.53125	12	-2.70336e-05
2	0	0	0	0	193.521	0.207668	0.20752	-0.0834886	1	2.53081	12	-1.73255e-05
2	0	0	0	0	198.022	0.162657	0.162553	-0.0625268	1	2.53048	12	-1.01639e-05
2	0	0	1	0	202.523	0.117647	0.118623	-0.0487838	1	2.53023	12	-5.78688e-06
2	0	0	0	0	207.024	0.0726363	0.0717308	-0.0399319	1	2.53003	12	-2.86435e-06
2	0	0	1	0	211.525	0.0276255	0.027163	-0.0343792	1	2.52986	12	-9.33842e-07
2	0	0	1	1	215.847	0.0155229	0.0146771	-0.0259356	2	2.52972	12	-3.8066e-07
2	0	0	0	1	220.348	0.0605335	0.0609149	-0.0182985	2	2.52963	12	-1.11465e-06
2	0	0	0	1	224.849	0.105544	0.105426	-0.0129764	2	2.52956	12	-1.36805e-06
2	0	0	1	1	229.35	0.150555	0.150274	-0.00727746	2	2.52952	12	-1.09361e-06
2	1	0	0	1	233.851	0.195565	0.195611	-0.000824126	2	2.5295	12	-1.61208e-07
2	1	0	1	1	238.352	0.240575	0.240249	0.00982328	2	2.52952	12	2.36003e-06
2	1	0	1	1	242.853	0.285586	0.285449	0.0304025	2	2.52961	12	8.67835e-06
2	1	0	0	1	247.354	0.330597	0.330958	0.0642804	2	2.52983	12	2.12741e-05
2	1	0	1	1	251.855	0.375607	0.375724	0.114517	2	2.53023	12	4.30268e-05
2	1	0	1	1	256.356	0.420618	0.420312	0.181961	2	2.5309	12	7.64802e-05
2	1	0	0	1	260.857	0.465629	0.464143	0.246019	2	2.53188	12	0.000114188
2	1	0	1	1	265.358	0.510639	0.509655	0.333705	2	2.53319	12	0.000170074
2	1	0	1	1	269.859	0.55565	0.555817	0.446455	2	2.53494	12	0.000248147
2	1	0	0	1	274.36	0.60066	0.60117	0.730104	2	2.53745	12	0.000438916
2	1	0	1	1	278.891	0.645971	0.645211	2.32773	2	2.54351	11	0.00150188
2	1	0	0	1	283.392	0.690981	0.690801	6.84149	2	2.563	11	0.0047261
2	1	0	0	1	287.924	0.736292	0.737275	14.2426	2	2.60985	10	0.0105007
2	1	0	1	1	292.425	0.781303	0.780509	23.865	2	2.69501	10	0.0186269
2	1	0	0	1	296.926	0.826313	0.825355	35.0497	2	2.82708	10	0.0289284
2	1	0	0	1	301.427	0.871324	0.871191	47.7712	2	3.01267	10	0.0416178
2	1	0	1	1	305.928	0.916334	0.915357	61.1238	2	3.25729	10	0.0559501
2	1	0	0	1	310.429	0.961345	0.961641	75.705	2	3.56569	10	0.072801
2	1	0	0	1	314.75	0.995453	0.996571	86.5216	2	3.92248	10	0.0862249
2	1	0	1	1	319.251	0.950442	0.950911	71.2384	2	4.27691	10	0.0677414
2	1	0	0	1	323.752	0.905432	0.905526	56.756	2	4.56461	10	0.051394
2	1	0	0	1	328.254	0.860421	0.85981	43.4283	2	4.78942	10	0.0373401
2	1	0	1	1	332.755	0.81541	0.815069	31.5001	2	4.95742	10	0.0256747
2	1	0	0	1	337.256	0.7704	0.768823	21.2178	2	5.07537	10	0.0163127
2	1	0	1	1	341.757	0.72539	0.725453	12.7526	2	5.15108	10	0.00925138
2	1	0	1	1	346.258	0.680379	0.681108	6.3774	2	5.19324	10	0.00434369
2	1	0	0	1	350.789	0.635068	0.635242	2.29599	2	5.21193	11	0.00145851
2	1	0	1	1	355.29	0.590058	0.588379	0.464993	2	5.21741	11	0.000273592
[...]
2	0	0	0	1	400.33	0.139652	0.140136	-0.0656123	2	5.21203	12	-9.19465e-06
2	0	0	0	1	404.832	0.0946415	0.0958817	-0.0523098	2	5.21176	12	-5.01555e-06
2	0	0	1	1	409.333	0.0496309	0.0477517	-0.0436713	2	5.21155	12	-2.08538e-06
2	0	0	0	1	413.834	0.00462037	0.00406066	-0.0381692	2	5.21136	12	-1.54992e-07
2	0	0	0	0	418.155	0.0385283	0.039403	-0.0273144	3	5.21122	12	-1.07627e-06
2	0	0	1	0	422.656	0.0835389	0.0838821	-0.0214523	3	5.21112	12	-1.79947e-06
2	1	0	0	0	427.157	0.128549	0.127623	-0.0164239	3	5.21103	12	-2.09607e-06
2	1	0	0	0	431.658	0.17356	0.172898	-0.0106408	3	5.21098	12	-1.83977e-06
2	1	0	1	0	436.159	0.218571	0.217887	-0.00234844	3	5.21095	12	-5.11694e-07
2	1	0	0	0	440.66	0.263581	0.264523	0.0133476	3	5.21098	12	3.53074e-06
2	1	0	1	0	445.161	0.308591	0.307137	0.0414958	3	5.2111	12	1.27449e-05
2	1	0	1	0	449.663	0.353602	0.352346	0.0827491	3	5.21138	12	2.91563e-05
2	1	0	0	0	454.164	0.398613	0.397023	0.145569	3	5.21189	12	5.77943e-05
2	1	0	1	0	458.665	0.443623	0.445829	0.206329	3	5.2127	12	9.19876e-05
2	1	0	1	0	463.166	0.488634	0.48686	0.278667	3	5.21379	12	0.000135672
2	1	0	0	0	467.667	0.533644	0.533581	0.366283	3	5.21526	12	0.000195442
2	1	0	1	0	472.168	0.578655	0.578136	0.50705	3	5.2172	12	0.000293144
2	1	0	1	0	476.699	0.623966	0.622739	1.24176	3	5.22069	11	0.000773289
2	1	0	0	0	481.2	0.668976	0.667035	4.23316	3	5.23192	11	0.00282366
2	1	0	1	0	485.701	0.713987	0.710947	10.1925	3	5.26339	11	0.00724636
2	1	0	1	0	490.232	0.759298	0.758384	18.8027	3	5.32827	10	0.0142597
2	1	0	0	0	494.733	0.804308	0.804202	29.2196	3	5.43576	10	0.0234985
2	1	0	1	0	499.234	0.849318	0.849328	41.0374	3	5.59346	10	0.0348542
2	1	0	0	0	503.735	0.894329	0.894433	54.5629	3	5.8081	10	0.0488029
2	1	0	0	0	508.236	0.93934	0.9378	68.5778	3	6.08485	10	0.0643122
2	1	0	1	0	512.737	0.98435	0.983602	83.4934	3	6.42727	10	0.0821243
2	1	0	1	0	517.059	0.972447	0.972521	78.8996	3	6.79281	10	0.0767316
2	1	0	0	0	521.56	0.927437	0.928155	63.7016	3	7.1131	10	0.0591249
2	1	0	1	0	526.061	0.882426	0.881511	49.9948	3	7.36862	10	0.0440709
2	1	0	0	0	530.562	0.837416	0.835858	37.378	3	7.56461	10	0.0312427
2	1	0	0	0	535.063	0.792405	0.793114	26.2275	3	7.70687	10	0.0208014
2	1	0	1	0	539.564	0.747395	0.746954	16.6605	3	7.80262	10	0.0124446
2	1	0	0	0	544.065	0.702384	0.703758	9.14711	3	7.85984	10	0.00643735
2	1	0	1	0	548.596	0.657074	0.657682	3.92229	3	7.88851	11	0.00257962
2	1	0	1	0	553.097	0.612063	0.611725	1.11662	3	7.89897	11	0.000683065
2	1	0	0	0	557.628	0.566752	0.565464	0.0967458	3	7.90121	12	5.47062e-05
2	0	0	1	0	562.129	0.521741	0.521065	-0.140303	3	7.90096	12	-7.31071e-05
2	0	0	1	0	566.631	0.476731	0.476377	-0.191133	3	7.90017	12	-9.10516e-05
2	0	0	0	0	571.132	0.431721	0.430872	-0.200236	3	7.89926	12	-8.6276e-05
2	0	0	1	0	575.633	0.38671	0.386986	-0.199342	3	7.89835	12	-7.71426e-05
2	0	0	1	0	580.134	0.341699	0.341072	-0.185793	3	7.89747	12	-6.33686e-05
2	0	0	0	0	584.635	0.296689	0.296575	-0.166103	3	7.89666	12	-4.9262e-05
2	0	0	1	0	589.136	0.251678	0.251248	-0.137165	3	7.89597	12	-3.44624e-05
2	0	0	1	0	593.637	0.206667	0.206255	-0.106816	3	7.89542	12	-2.20315e-05
2	0	0	0	0	598.138	0.161657	0.16218	-0.0810417	3	7.89499	12	-1.31434e-05
2	0	0	1	0	602.639	0.116647	0.116238	-0.0634454	3	7.89467	12	-7.37474e-06
2	0	0	0	0	607.14	0.0716361	0.0696444	-0.0519325	3	7.89441	12	-3.61681e-06
2	0	0	0	0	611.641	0.0266255	0.0265262	-0.0446462	3	7.89419	12	-1.18429e-06
2	0	0	0	1	615.963	-0.0165846	-0.0172158	-0.0399593	3	7.894	12	6.87932e-07
2	0	0	1	1	620.464	-0.0615952	-0.0624322	-0.0360356	3	7.89383	12	2.24978e-06
2	0	0	0	1	624.965	-0.106606	-0.106873	-0.032932	3	7.89368	12	3.51954e-06
2	0	0	0	1	628.618	-0.143164	-0.143799	-0.0245871	3	7.89356	12	3.53559e-06

File: 2022_01_24 Co50Ni25Fe25Nx elec1 set1.1_03_CP_C02.mpt
EC-Lab ASCII FILE
Nb header lines : 52

Chronopotentiometry

Run on channel : 2 (SN 12477)
User :
CE vs. WE compliance from -10 V to 10 V
Electrode connection : standard
Potential control : Ewe
Ewe ctrl range : min = -2.50 V, max = 2.50 V
Safety Limits :
	Do not start on E overload
Acquisition started on : 01/24/2023 12:28:09.319
Loaded Setting File :  C:\Users\grupogalan\Documents\EC-Lab\Data\Lole Jurado\2023_01_23_CoNiFeNx_400ºC_24h_electrode1__set2_20012023_1.mps
Saved on :
	File : 2022_01_24 Co50Ni25Fe25Nx elec1 set1.1_03_CP_C02.mpr
	Directory : C:\Users\grupogalan\Documents\EC-Lab\Data\Scott\
	Host : 169.254.104.159
Device : VSP (SN 1176)
Address : USB
EC-Lab for windows v11.46 (software)
Internet server v11.40 (firmware)
Command interpretor v11.40 (firmware)
Electrode material :
Initial state :
Electrolyte :
Comments :
Electrode surface area : 0.000 cm²
Characteristic mass : 0.001 g
Equivalent Weight : 0.000 g/eq.
Density : 0.000 g/cm3
Volume (V) : 0.001 cm³
Cycle Definition : Charge/Discharge alternance
Is                  10.000
unit Is             mA
vs.                 <None>
ts (h:m:s)          2:00:0.0000
EM (V)              pass
dQM                 20.000
unit dQM            mA.h
record              <Ewe>
dEs (mV)            0.00
dts (s)             1.0000
E range min (V)     -2.500
E range max (V)     2.500
I Range             10 mA
Bandwidth           5
goto Ns'            0
nc cycles           0

mode	ox/red	error	control changes	Ns changes	counter inc.	Ns	time/s	control/mA	<Ewe>/V	I/mA	dQ/C	(Q-Qo)/C	half cycle	Q charge/discharge/mA.h	I Range	Energy charge/W.h	Energy discharge/W.h	Capacitance charge/µF	Capacitance discharge/µF	Q discharge/mA.h	Q charge/mA.h	Capacity/mA.h	Efficiency/%	cycle number	P/W
1	1	0	1	0	0	0	679.477	10	0.707655	10.0015	0.00947728	0.00947728	0	0.00263258	11	1.86296e-06	0.000000000000000E+000	0.000000000000000E+000	0.000000000000000E+000	0.000000000000000E+000	0.00263258	0.00263258	0.0000000E+000	0.000000000000000E+000	0.0070776
1	1	0	1	0	0	0	843.477	10	0.710102	10.0015	1.6497	1.6497	0	0.458251	11	0.00032602	0.000000000000000E+000	6.74089e+08	0.000000000000000E+000	0.000000000000000E+000	0.458251	0.458251	0.0000000E+000	0.000000000000000E+000	0.00710208
1	1	0	1	0	0	0	1007.48	10	0.710382	10.0012	3.28993	3.28993	0	0.913869	11	0.000649506	0.000000000000000E+000	1.20649e+09	0.000000000000000E+000	0.000000000000000E+000	0.913869	0.913869	0.0000000E+000	0.000000000000000E+000	0.0071047
1	1	0	1	0	0	0	1171.48	10	0.711949	10.0009	4.93015	4.93015	0	1.36949	11	0.000973413	0.000000000000000E+000	1.14814e+09	0.000000000000000E+000	0.000000000000000E+000	1.36949	1.36949	0.0000000E+000	0.000000000000000E+000	0.00712014
1	1	0	1	0	0	0	1335.48	10	0.713451	10.0021	6.57038	6.57038	0	1.82511	11	0.00129807	0.000000000000000E+000	1.13357e+09	0.000000000000000E+000	0.000000000000000E+000	1.82511	1.82511	0.0000000E+000	0.000000000000000E+000	0.00713598
1	1	0	1	0	0	0	1499.48	10	0.716042	10.0005	8.2106	8.2106	0	2.28072	11	0.00162377	0.000000000000000E+000	9.78985e+08	0.000000000000000E+000	0.000000000000000E+000	2.28072	2.28072	0.0000000E+000	0.000000000000000E+000	0.00716076
1	1	0	1	0	0	0	1663.48	10	0.718986	10.0012	9.85083	9.85083	0	2.73634	11	0.00195073	0.000000000000000E+000	8.69332e+08	0.000000000000000E+000	0.000000000000000E+000	2.73634	2.73634	0.0000000E+000	0.000000000000000E+000	0.00719075
1	1	0	1	0	0	0	1827.48	10	0.721737	10.0017	11.4911	11.4911	0	3.19196	11	0.00227901	0.000000000000000E+000	8.15992e+08	0.000000000000000E+000	0.000000000000000E+000	3.19196	3.19196	0.0000000E+000	0.000000000000000E+000	0.00721859
1	1	0	1	0	0	0	1991.48	10	0.725333	10.0015	13.1313	13.1313	0	3.64758	11	0.00260876	0.000000000000000E+000	7.42783e+08	0.000000000000000E+000	0.000000000000000E+000	3.64758	3.64758	0.0000000E+000	0.000000000000000E+000	0.00725442
1	1	0	1	0	0	0	2155.48	10	0.72849	10.0016	14.7715	14.7715	0	4.1032	11	0.00293999	0.000000000000000E+000	7.08966e+08	0.000000000000000E+000	0.000000000000000E+000	4.1032	4.1032	0.0000000E+000	0.000000000000000E+000	0.00728608
1	1	0	1	0	0	0	2319.48	10	0.73221	10.0019	16.4117	16.4117	0	4.55882	11	0.00327271	0.000000000000000E+000	6.68354e+08	0.000000000000000E+000	0.000000000000000E+000	4.55882	4.55882	0.0000000E+000	0.000000000000000E+000	0.00732348
1	1	0	1	0	0	0	2483.48	10	0.735159	10.0016	18.052	18.052	0	5.01443	11	0.00360692	0.000000000000000E+000	6.56327e+08	0.000000000000000E+000	0.000000000000000E+000	5.01443	5.01443	0.0000000E+000	0.000000000000000E+000	0.00735274
1	1	0	1	0	0	0	2647.48	10	0.737744	10.0018	19.6922	19.6922	0	5.47005	11	0.0039424	0.000000000000000E+000	6.54462e+08	0.000000000000000E+000	0.000000000000000E+000	5.47005	5.47005	0.0000000E+000	0.000000000000000E+000	0.00737878
1	1	0	1	0	0	0	2811.48	10	0.740722	10.0011	21.3324	21.3324	0	5.92567	11	0.00427921	0.000000000000000E+000	6.45124e+08	0.000000000000000E+000	0.000000000000000E+000	5.92567	5.92567	0.0000000E+000	0.000000000000000E+000	0.00740804
1	1	0	1	0	0	0	2975.48	10	0.743211	10.0013	22.9726	22.9726	0	6.38129	11	0.00461723	0.000000000000000E+000	6.46091e+08	0.000000000000000E+000	0.000000000000000E+000	6.38129	6.38129	0.0000000E+000	0.000000000000000E+000	0.00743308
1	1	0	1	0	0	0	3139.48	10	0.746327	10.0013	24.6129	24.6129	0	6.8369	11	0.0049565	0.000000000000000E+000	6.36451e+08	0.000000000000000E+000	0.000000000000000E+000	6.8369	6.8369	0.0000000E+000	0.000000000000000E+000	0.00746424
1	1	0	1	0	0	0	3303.48	10	0.748897	10.0018	26.2531	26.2531	0	7.29252	11	0.00529702	0.000000000000000E+000	6.36553e+08	0.000000000000000E+000	0.000000000000000E+000	7.29252	7.29252	0.0000000E+000	0.000000000000000E+000	0.00749033
1	1	0	1	0	0	0	3467.48	10	0.75096	10.0014	27.8933	27.8933	0	7.74814	11	0.00563863	0.000000000000000E+000	6.44104e+08	0.000000000000000E+000	0.000000000000000E+000	7.74814	7.74814	0.0000000E+000	0.000000000000000E+000	0.00751068
1	1	0	1	0	0	0	3631.48	10	0.753555	10.0007	29.5335	29.5335	0	8.20376	11	0.00598136	0.000000000000000E+000	6.4343e+08	0.000000000000000E+000	0.000000000000000E+000	8.20376	8.20376	0.0000000E+000	0.000000000000000E+000	0.00753605
1	1	0	1	0	0	0	3795.48	10	0.755443	10.0014	31.1737	31.1737	0	8.65937	11	0.00632519	0.000000000000000E+000	6.52334e+08	0.000000000000000E+000	0.000000000000000E+000	8.65937	8.65937	0.0000000E+000	0.000000000000000E+000	0.00755551
1	1	0	1	0	0	0	3959.48	10	0.758477	10.0007	32.814	32.814	0	9.11499	11	0.0066701	0.000000000000000E+000	6.45664e+08	0.000000000000000E+000	0.000000000000000E+000	9.11499	9.11499	0.0000000E+000	0.000000000000000E+000	0.00758532
1	1	0	1	0	0	0	4123.48	10	0.760089	10.0007	34.4542	34.4542	0	9.57061	11	0.00701604	0.000000000000000E+000	6.57089e+08	0.000000000000000E+000	0.000000000000000E+000	9.57061	9.57061	0.0000000E+000	0.000000000000000E+000	0.0076014
1	1	0	1	0	0	0	4287.48	10	0.762621	10.0015	36.0944	36.0944	0	10.0262	11	0.00736294	0.000000000000000E+000	6.56663e+08	0.000000000000000E+000	0.000000000000000E+000	10.0262	10.0262	0.0000000E+000	0.000000000000000E+000	0.00762735
1	1	0	1	0	0	0	4451.48	10	0.764568	10.001	37.7346	37.7346	0	10.4818	11	0.00771081	0.000000000000000E+000	6.63017e+08	0.000000000000000E+000	0.000000000000000E+000	10.4818	10.4818	0.0000000E+000	0.000000000000000E+000	0.00764648
[...]
1	1	0	1	0	0	0	5435.48	10	0.776105	10.0017	47.576	47.576	0	13.2155	11	0.00981714	0.000000000000000E+000	6.95049e+08	0.000000000000000E+000	0.000000000000000E+000	13.2155	13.2155	0.0000000E+000	0.000000000000000E+000	0.0077624
1	1	0	1	0	0	0	5599.48	10	0.778172	10.0013	49.2162	49.2162	0	13.6712	11	0.0101713	0.000000000000000E+000	6.97927e+08	0.000000000000000E+000	0.000000000000000E+000	13.6712	13.6712	0.0000000E+000	0.000000000000000E+000	0.00778274
1	1	0	1	0	0	0	5763.48	10	0.77956	10.0012	50.8564	50.8564	0	14.1268	11	0.0105263	0.000000000000000E+000	7.07266e+08	0.000000000000000E+000	0.000000000000000E+000	14.1268	14.1268	0.0000000E+000	0.000000000000000E+000	0.00779657
1	1	0	1	0	0	0	5927.48	10	0.781932	10.001	52.4967	52.4967	0	14.5824	11	0.0108821	0.000000000000000E+000	7.0677e+08	0.000000000000000E+000	0.000000000000000E+000	14.5824	14.5824	0.0000000E+000	0.000000000000000E+000	0.00782014
1	1	0	1	0	0	0	6091.48	10	0.784139	10.0014	54.1369	54.1369	0	15.038	11	0.0112388	0.000000000000000E+000	7.07817e+08	0.000000000000000E+000	0.000000000000000E+000	15.038	15.038	0.0000000E+000	0.000000000000000E+000	0.00784251
1	1	0	1	0	0	0	6255.48	10	0.785533	10.0017	55.7771	55.7771	0	15.4936	11	0.0115963	0.000000000000000E+000	7.1621e+08	0.000000000000000E+000	0.000000000000000E+000	15.4936	15.4936	0.0000000E+000	0.000000000000000E+000	0.00785665
1	1	0	1	0	0	0	6419.48	10	0.78693	10.002	57.4173	57.4173	0	15.9493	11	0.0119547	0.000000000000000E+000	7.24282e+08	0.000000000000000E+000	0.000000000000000E+000	15.9493	15.9493	0.0000000E+000	0.000000000000000E+000	0.00787087
1	1	0	1	0	0	0	6583.48	10	0.789326	10.0015	59.0575	59.0575	0	16.4049	11	0.0123138	0.000000000000000E+000	7.23113e+08	0.000000000000000E+000	0.000000000000000E+000	16.4049	16.4049	0.0000000E+000	0.000000000000000E+000	0.00789444
1	1	0	1	0	0	0	6747.48	10	0.790992	10.0012	60.6978	60.6978	0	16.8605	11	0.0126738	0.000000000000000E+000	7.28338e+08	0.000000000000000E+000	0.000000000000000E+000	16.8605	16.8605	0.0000000E+000	0.000000000000000E+000	0.0079109
1	1	0	1	0	0	0	6911.48	10	0.792898	10.0014	62.338	62.338	0	17.3161	11	0.0130345	0.000000000000000E+000	7.31293e+08	0.000000000000000E+000	0.000000000000000E+000	17.3161	17.3161	0.0000000E+000	0.000000000000000E+000	0.00793012
1	1	0	1	0	0	0	7075.48	10	0.794369	10.0014	63.9782	63.9782	0	17.7717	11	0.013396	0.000000000000000E+000	7.37804e+08	0.000000000000000E+000	0.000000000000000E+000	17.7717	17.7717	0.0000000E+000	0.000000000000000E+000	0.00794478
1	1	0	1	0	0	0	7239.48	10	0.796081	10.0012	65.6185	65.6185	0	18.2273	11	0.0137583	0.000000000000000E+000	7.42073e+08	0.000000000000000E+000	0.000000000000000E+000	18.2273	18.2273	0.0000000E+000	0.000000000000000E+000	0.00796179
1	1	0	1	0	0	0	7403.48	10	0.797935	10.0012	67.2587	67.2587	0	18.683	11	0.0141215	0.000000000000000E+000	7.44995e+08	0.000000000000000E+000	0.000000000000000E+000	18.683	18.683	0.0000000E+000	0.000000000000000E+000	0.00798034
1	1	0	1	0	0	0	7567.48	10	0.79943	10.0006	68.8989	68.8989	0	19.1386	11	0.0144854	0.000000000000000E+000	7.50732e+08	0.000000000000000E+000	0.000000000000000E+000	19.1386	19.1386	0.0000000E+000	0.000000000000000E+000	0.00799479
1	1	0	1	0	0	0	7731.48	10	0.801126	10.0018	70.5391	70.5391	0	19.5942	11	0.0148501	0.000000000000000E+000	7.54657e+08	0.000000000000000E+000	0.000000000000000E+000	19.5942	19.5942	0.0000000E+000	0.000000000000000E+000	0.00801272
1	1	0	1	0	0	0	7878.53	10	0.802984	10.0021	72.0099	72.0099	0	20.0027	11	0.0151778	0.000000000000000E+000	7.55377e+08	0.000000000000000E+000	0.000000000000000E+000	20.0027	20.0027	0.0000000E+000	0.000000000000000E+000	0.0080315