Folder: EC-Lab-Processing/Data_1mg (part 9)

File: 2023_01_31 NiNx 1 mg 307ref set1_C05.mpt
EC-Lab ASCII FILE
Nb header lines : 63

Potentio Electrochemical Impedance Spectroscopy

Run on channel : 5 (SN 30436)
User :
CE vs. WE compliance from -10 V to 10 V
Electrode connection : standard
Potential control : Ewe
Ewe ctrl range : min = -10.00 V, max = 10.00 V
Safety Limits :
	Do not start on E overload
Acquisition started on : 01/31/2023 10:41:20.236
Loaded Setting File :  NONE
Saved on :
	File : 2023_01_31 NiNx 1 mg 307ref set1_C05.mpr
	Directory : C:\Users\grupogalan\Documents\EC-Lab\Data\Scott\
	Host : 169.254.104.159
Device : VSP (SN 1176)
Address : USB
EC-Lab for windows v11.46 (software)
Internet server v11.40 (firmware)
Command interpretor v11.40 (firmware)
Electrode material :
Initial state :
Electrolyte :
Comments :
Electrode surface area : 0.001 cm²
Characteristic mass : 0.001 g
Equivalent Weight : 0.000 g/eq.
Density : 0.000 g/cm3
Volume (V) : 0.001 cm³
Cycle Definition : Charge/Discharge alternance
Mode                Single sine
E (V)               0.0000
vs.                 Eoc
tE (h:m:s)          0:00:0.0000
record              0
dI                  0.000
unit dI             mA
dt (s)              0.000
fi                  200.000
unit fi             kHz
ff                  100.000
unit ff             mHz
Nd                  6
Points              per decade
spacing             Logarithmic
Va (mV)             10.0
pw                  0.10
Na                  2
corr                0
E range min (V)     -10.000
E range max (V)     10.000
I Range             Auto
Bandwidth           5
nc cycles           0
goto Ns'            0
nr cycles           0
inc. cycle          0

freq/Hz	Re(Z)/Ohm	-Im(Z)/Ohm	|Z|/Ohm	Phase(Z)/deg	time/s	<Ewe>/V	<I>/mA	Cs/µF	Cp/µF	cycle number	I Range	|Ewe|/V	|I|/A	Ns	(Q-Qo)/mA.h	Re(Y)/Ohm-1	Im(Y)/Ohm-1	|Y|/Ohm-1	Phase(Y)/deg	Re(C)/nF	Im(C)/nF	|C|/nF	Phase(C)/deg	Re(M)	Im(M)	|M|	Phase(M)/deg	Re(Permittivity)	Im(Permittivity)	|Permittivity|	Phase(Permittivity)/deg	Re(Resistivity)/Ohm.cm	Im(Resistivity)/Ohm.cm	|Resistivity|/Ohm.cm	Phase(Resistivity)/deg	Re(Conductivity)/mS/cm	Im(Conductivity)/mS/cm	|Conductivity|/mS/cm	Phase(Conductivity)/deg	Tan(Delta)	Loss Angle(Delta)/deg	dq/mA.h
199998	1.57645	-1.42248	2.12335	42.061	2.7335	-0.204078	-0.170366	-0.559433	-0.25107	1	9	0.00713426	0.0033599	0	-2.60027e-05	0.349651	-0.315501	0.470953	-42.061	-251.07	278.246	374.776	-132.061	0.0000000E+000	0.0000000E+000	0.0000000E+000	132.061	0.0000000E+000	0.0000000E+000	0.0000000E+000	-132.061	0.0000000E+000	0.0000000E+000	0.0000000E+000	42.061	0.0000000E+000	0.0000000E+000	0.0000000E+000	-42.061	-1.10824	-42.061	-2.60027e-05
91291.2	1.11152	-0.243543	1.13789	12.3587	3.57747	-0.204111	-0.172285	-7.15839	-0.327919	1	9	0.00968938	0.00851522	0	-7.07213e-05	0.858455	-0.188094	0.87882	-12.3587	-327.919	1496.61	1532.11	-102.359	0.0000000E+000	0.0000000E+000	0.0000000E+000	102.359	0.0000000E+000	0.0000000E+000	0.0000000E+000	-102.359	0.0000000E+000	0.0000000E+000	0.0000000E+000	12.3587	0.0000000E+000	0.0000000E+000	0.0000000E+000	-12.3587	-4.56396	-12.3587	-3.64609e-05
41669.8	1.14808	0.0271719	1.1484	-1.35578	4.42148	-0.203904	-0.159949	140.566	0.0786917	1	9	0.0107549	0.00936507	0	-0.000105706	0.87053	0.020603	0.870773	1.35578	78.6916	3324.93	3325.86	-88.6442	0.0000000E+000	0.0000000E+000	0.0000000E+000	88.6442	0.0000000E+000	0.0000000E+000	0.0000000E+000	-88.6442	0.0000000E+000	0.0000000E+000	0.0000000E+000	-1.35578	0.0000000E+000	0.0000000E+000	0.0000000E+000	1.35578	42.2526	1.35578	-1.9626e-06
19020.9	1.16924	0.247886	1.19523	-11.9698	5.26548	-0.203938	-0.164831	33.7549	1.45191	1	9	0.0107275	0.00897527	0	-0.00013619	0.81847	0.173521	0.836662	11.9698	1451.91	6848.43	7000.65	-78.0302	0.0000000E+000	0.0000000E+000	0.0000000E+000	78.0302	0.0000000E+000	0.0000000E+000	0.0000000E+000	-78.0302	0.0000000E+000	0.0000000E+000	0.0000000E+000	-11.9698	0.0000000E+000	0.0000000E+000	0.0000000E+000	11.9698	4.71685	11.9698	-8.26467e-06
8683.37	1.2255	0.57442	1.35344	-25.1136	6.13698	-0.203989	-0.164328	31.9082	5.74755	1	9	0.010483	0.00774542	0	-0.000197772	0.669012	0.313582	0.738857	25.1136	5747.55	12262.1	13542.3	-64.8864	0.0000000E+000	0.0000000E+000	0.0000000E+000	64.8864	0.0000000E+000	0.0000000E+000	0.0000000E+000	-64.8864	0.0000000E+000	0.0000000E+000	0.0000000E+000	-25.1136	0.0000000E+000	0.0000000E+000	0.0000000E+000	25.1136	2.13345	25.1136	-2.44148e-05
3961.2	1.32969	1.17754	1.77614	-41.5271	7.21396	-0.203976	-0.15598	34.1208	14.9973	1	9	0.01026	0.00577656	0	-0.000250353	0.421499	0.373267	0.563019	41.5271	14997.3	16935.2	22621.2	-48.4729	0.0000000E+000	0.0000000E+000	0.0000000E+000	48.4729	0.0000000E+000	0.0000000E+000	0.0000000E+000	-48.4729	0.0000000E+000	0.0000000E+000	0.0000000E+000	-41.5271	0.0000000E+000	0.0000000E+000	0.0000000E+000	41.5271	1.12922	41.5271	-2.13576e-05
1808.26	1.45562	2.43233	2.83462	-59.1017	8.13793	-0.204025	-0.167254	36.1856	26.6435	1	9	0.00923346	0.00325739	0	-0.000292814	0.181159	0.302715	0.352781	59.1017	26643.5	15944.8	31050.2	-30.8983	0.0000000E+000	0.0000000E+000	0.0000000E+000	30.8983	0.0000000E+000	0.0000000E+000	0.0000000E+000	-30.8983	0.0000000E+000	0.0000000E+000	0.0000000E+000	-59.1017	0.0000000E+000	0.0000000E+000	0.0000000E+000	59.1017	0.598448	59.1017	-2.38174e-05
825.264	1.62859	5.16351	5.41426	-72.4945	9.53271	-0.204001	-0.0194132	37.3492	33.9699	1	10	0.00992579	0.00183327	0	-0.000310763	0.0555564	0.176144	0.184698	72.4945	33969.9	10714.2	35619.5	-17.5055	0.0000000E+000	0.0000000E+000	0.0000000E+000	17.5055	0.0000000E+000	0.0000000E+000	0.0000000E+000	-17.5055	0.0000000E+000	0.0000000E+000	0.0000000E+000	-72.4945	0.0000000E+000	0.0000000E+000	0.0000000E+000	72.4945	0.315403	72.4945	-1.24295e-06
377.051	2.16568	10.9617	11.1736	-78.8242	10.4557	-0.203752	-0.0183917	38.5072	37.0606	1	10	0.0096754	0.000865917	0	-0.000314842	0.0173463	0.0877996	0.0894967	78.8242	37060.6	7321.96	37777	-11.1759	0.0000000E+000	0.0000000E+000	0.0000000E+000	11.1759	0.0000000E+000	0.0000000E+000	0.0000000E+000	-11.1759	0.0000000E+000	0.0000000E+000	0.0000000E+000	-78.8242	0.0000000E+000	0.0000000E+000	0.0000000E+000	78.8242	0.197567	78.8242	-2.52061e-06
172.037	2.91534	23.2491	23.4312	-82.8527	11.3744	-0.203972	-0.0194207	39.7917	39.1757	1	10	0.00963889	0.000411371	0	-0.000319818	0.00531008	0.0423466	0.0426782	82.8527	39175.7	4912.47	39482.5	-7.14734	0.0000000E+000	0.0000000E+000	0.0000000E+000	7.14734	0.0000000E+000	0.0000000E+000	0.0000000E+000	-7.14734	0.0000000E+000	0.0000000E+000	0.0000000E+000	-82.8527	0.0000000E+000	0.0000000E+000	0.0000000E+000	82.8527	0.125396	82.8527	-2.01035e-06
78.5176	5.7746	48.8749	49.2149	-83.2617	12.5505	-0.203835	-0.00231657	41.4731	40.9022	1	11	0.00965715	0.000196224	0	-0.000321808	0.00238412	0.0201787	0.0203191	83.2617	40902.2	4832.61	41186.7	-6.73829	0.0000000E+000	0.0000000E+000	0.0000000E+000	6.73829	0.0000000E+000	0.0000000E+000	0.0000000E+000	-6.73829	0.0000000E+000	0.0000000E+000	0.0000000E+000	-83.2617	0.0000000E+000	0.0000000E+000	0.0000000E+000	83.2617	0.118151	83.2617	-2.86759e-07
35.8372	8.59597	102.595	102.954	-85.2106	13.4791	-0.203892	-0.00240643	43.2873	42.9855	1	11	0.00958113	9.30618e-05	0	-0.000322529	0.000810969	0.00967912	0.00971303	85.2106	42985.5	3601.56	43136.1	-4.78937	0.0000000E+000	0.0000000E+000	0.0000000E+000	4.78937	0.0000000E+000	0.0000000E+000	0.0000000E+000	-4.78937	0.0000000E+000	0.0000000E+000	0.0000000E+000	-85.2106	0.0000000E+000	0.0000000E+000	0.0000000E+000	85.2106	0.0837855	85.2106	-3.32857e-07
16.367	19.8692	215.974	216.886	-84.7437	14.617	-0.204014	-0.000546611	45.0247	44.6468	1	12	0.00952268	4.39064e-05	0	-0.000322725	0.000422394	0.00459133	0.00461072	84.7437	44646.8	4107.42	44835.3	-5.25631	0.0000000E+000	0.0000000E+000	0.0000000E+000	5.25631	0.0000000E+000	0.0000000E+000	0.0000000E+000	-5.25631	0.0000000E+000	0.0000000E+000	0.0000000E+000	-84.7437	0.0000000E+000	0.0000000E+000	0.0000000E+000	84.7437	0.0919982	84.7437	8.2605e-09
7.46893	19.9427	444.083	444.531	-87.4287	15.3666	-0.203963	-0.0008235	47.9841	47.8875	1	12	0.00940526	2.11577e-05	0	-0.000322901	0.00010092	0.0022473	0.00224956	87.4287	47887.5	2150.51	47935.8	-2.57128	0.0000000E+000	0.0000000E+000	0.0000000E+000	2.57128	0.0000000E+000	0.0000000E+000	0.0000000E+000	-2.57128	0.0000000E+000	0.0000000E+000	0.0000000E+000	-87.4287	0.0000000E+000	0.0000000E+000	0.0000000E+000	87.4287	0.0449075	87.4287	4.79575e-08
3.4086	91.2536	982.203	986.433	-84.6921	16.8292	-0.20399	-0.000183684	47.5383	47.1314	1	13	0.00947824	9.6086e-06	0	-0.000323047	9.3781e-05	0.00100941	0.00101375	84.6921	47131.4	4378.84	47334.4	-5.30795	0.0000000E+000	0.0000000E+000	0.0000000E+000	5.30795	0.0000000E+000	0.0000000E+000	0.0000000E+000	-5.30795	0.0000000E+000	0.0000000E+000	0.0000000E+000	-84.6921	0.0000000E+000	0.0000000E+000	0.0000000E+000	84.6921	0.092907	84.6921	1.03927e-07
1.55627	199.414	2000.61	2010.53	-84.3078	19.1626	-0.203948	-0.000111754	51.1176	50.6147	1	13	0.00945237	4.70144e-06	0	-0.000323213	4.93327e-05	0.000494929	0.000497382	84.3078	50614.7	5045.08	50865.5	-5.69222	0.0000000E+000	0.0000000E+000	0.0000000E+000	5.69222	0.0000000E+000	0.0000000E+000	0.0000000E+000	-5.69222	0.0000000E+000	0.0000000E+000	0.0000000E+000	-84.3078	0.0000000E+000	0.0000000E+000	0.0000000E+000	84.3078	0.0996762	84.3078	-1.5063e-07
0.710357	528.265	4214.09	4247.07	-82.8548	25.1822	-0.203962	-3.54994e-05	53.1668	52.3442	1	14	0.00949418	2.23547e-06	0	-0.000323402	2.92869e-05	0.000233628	0.000235456	82.8548	52344.2	6561.71	52753.9	-7.14516	0.0000000E+000	0.0000000E+000	0.0000000E+000	7.14516	0.0000000E+000	0.0000000E+000	0.0000000E+000	-7.14516	0.0000000E+000	0.0000000E+000	0.0000000E+000	-82.8548	0.0000000E+000	0.0000000E+000	0.0000000E+000	82.8548	0.125357	82.8548	-2.28521e-08
0.480355	654.763	6088.55	6123.66	-83.862	29.5885	-0.203974	-7.40623e-06	54.4181	53.7959	1	14	0.00944769	1.54282e-06	0	-0.000323371	1.74607e-05	0.000162365	0.000163301	83.862	53795.9	5785.21	54106.1	-6.13799	0.0000000E+000	0.0000000E+000	0.0000000E+000	6.13799	0.0000000E+000	0.0000000E+000	0.0000000E+000	-6.13799	0.0000000E+000	0.0000000E+000	0.0000000E+000	-83.862	0.0000000E+000	0.0000000E+000	0.0000000E+000	83.862	0.10754	83.862	3.0408e-08

File: 2023_01_31 NiNx 1 mg 307ref set2_01_CV_C01.mpt
EC-Lab ASCII FILE
Nb header lines : 57

Cyclic Voltammetry

Run on channel : 1 (SN 21648)
User :
CE vs. WE compliance from -10 V to 10 V
Electrode connection : standard
Potential control : Ewe
Ewe ctrl range : min = -2.50 V, max = 2.50 V
Safety Limits :
	Do not start on E overload
Acquisition started on : 01/31/2023 10:44:48.640
Loaded Setting File :  C:\Users\grupogalan\Documents\EC-Lab\Data\Scott\_cyclic_pause_tafel.mps
Saved on :
	File : 2023_01_31 NiNx 1 mg 307ref set2_01_CV_C01.mpr
	Directory : C:\Users\grupogalan\Documents\EC-Lab\Data\Scott\
	Host : 169.254.104.159
Device : VSP (SN 1176)
Address : USB
EC-Lab for windows v11.46 (software)
Internet server v11.40 (firmware)
Command interpretor v11.40 (firmware)
Electrode material :
Initial state :
Electrolyte :
Comments :
Electrode surface area : 0.001 cm²
Characteristic mass : 0.001 g
Equivalent Weight : 0.000 g/eq.
Density : 0.000 g/cm3
Volume (V) : 0.001 cm³
Cycle Definition : Charge/Discharge alternance
Ei (V)              0.000
vs.                 Eoc
dE/dt               10.000
dE/dt unit          mV/s
E1 (V)              1.000
vs.                 Ref
Step percent        50
N                   10
E range min (V)     -2.500
E range max (V)     2.500
I Range             Auto
I Range min         Unset
I Range max         Unset
I Range init        Unset
Bandwidth           5
E2 (V)              0.000
vs.                 Ref
nc cycles           2
Reverse Scan        0
Ef (V)              0.000
vs.                 Eoc

mode	ox/red	error	control changes	counter inc.	time/s	control/V	Ewe/V	<I>/mA	cycle number	(Q-Qo)/C	I Range	P/W
2	0	0	0	0	0.000000000000000E+000	-0.215604	-0.215578	-0.00135832	1	0.0000000E+000	14	2.92824e-07
2	0	0	1	0	4.6552	-0.169054	-0.169246	0.000851414	1	3.42858e-06	14	-1.44099e-07
2	0	0	1	0	9.3552	-0.122053	-0.121755	0.00138426	1	8.4706e-06	14	-1.6854e-07
2	1	0	0	0	14.0554	-0.0750517	-0.0753401	0.00243595	1	1.77914e-05	14	-1.83525e-07
2	1	0	0	0	18.7554	-0.0280508	-0.0277722	0.0030417	1	3.10619e-05	14	-8.44748e-08
2	1	0	1	0	23.4556	0.01895	0.0192525	0.00306464	1	4.55058e-05	14	5.90019e-08
2	0	0	1	0	28.1556	0.0659509	0.0664745	0.00310756	1	6.00029e-05	14	2.06573e-07
2	1	0	0	0	32.8858	0.113252	0.112903	0.00329954	1	7.55746e-05	13	3.72528e-07
2	1	0	0	0	37.5858	0.160253	0.160441	0.00372259	1	9.25501e-05	13	5.97256e-07
2	1	0	0	0	42.2858	0.207254	0.20718	0.00428848	1	0.000111828	13	8.88489e-07
2	1	0	1	0	46.986	0.254254	0.254431	0.00513752	1	0.000134335	13	1.30714e-06
2	1	0	1	0	51.686	0.301255	0.301464	0.00623145	1	0.00016122	13	1.87856e-06
2	1	0	0	0	56.3862	0.348256	0.348485	0.00781108	1	0.000194334	13	2.72204e-06
2	1	0	0	0	61.0862	0.395257	0.395385	0.00999535	1	0.000236224	13	3.95201e-06
2	1	0	1	0	65.7864	0.442258	0.44236	0.0134053	1	0.00029055	13	5.92996e-06
2	1	0	1	0	70.4864	0.489259	0.489263	0.0180121	1	0.000364886	13	8.81267e-06
2	1	0	0	0	75.1866	0.53626	0.536642	0.0241602	1	0.000464306	13	1.29654e-05
2	1	0	0	0	79.8866	0.58326	0.583358	0.0313871	1	0.000594343	13	1.83099e-05
2	1	0	0	0	84.5866	0.630261	0.630502	0.0425938	1	0.000765987	13	2.68555e-05
2	1	0	1	0	89.2868	0.677262	0.67754	0.070869	1	0.00102102	13	4.80166e-05
2	1	0	1	0	94.0168	0.724563	0.724632	0.146245	1	0.00151296	12	0.000105974
2	1	0	0	0	98.717	0.771564	0.771971	0.272574	1	0.00248619	12	0.00021042
2	1	0	0	0	103.417	0.818565	0.818725	0.421223	1	0.00411469	12	0.000344866
2	1	0	1	0	108.117	0.865566	0.86563	0.599508	1	0.00647828	12	0.000518952
2	1	0	1	0	112.817	0.912567	0.912719	0.853639	1	0.00984996	12	0.000779133
2	1	0	0	0	117.547	0.959867	0.960407	1.19957	1	0.014722	11	0.00115208
2	1	0	0	0	122.118	0.994468	0.994545	1.32277	1	0.0207923	11	0.00131555
2	1	0	1	0	126.818	0.947467	0.947376	0.78261	1	0.0255863	11	0.000741426
2	1	0	1	0	131.518	0.900466	0.90087	0.486331	1	0.0285129	11	0.000438121
2	1	0	1	0	136.248	0.853166	0.853418	0.293836	1	0.0303176	12	0.000250765
2	1	0	0	0	140.948	0.806165	0.806336	0.174853	1	0.0313973	12	0.00014099
2	1	0	0	0	145.648	0.759164	0.759231	0.0941195	1	0.032016	12	7.14584e-05
2	1	0	1	0	150.378	0.711863	0.71215	0.0408813	1	0.0323234	13	2.91136e-05
2	1	0	1	0	155.078	0.664862	0.664839	0.0145439	1	0.0324448	13	9.66936e-06
2	1	0	0	0	159.779	0.617861	0.618117	0.00546376	1	0.0324875	13	3.37724e-06
2	1	0	0	0	164.479	0.57086	0.571095	0.00312967	1	0.0325068	13	1.78734e-06
2	1	0	1	0	169.179	0.523859	0.52424	0.00214437	1	0.0325192	13	1.12416e-06
2	1	0	1	0	173.879	0.476859	0.476986	0.00142782	1	0.0325277	13	6.81049e-07
2	1	0	1	0	178.579	0.429858	0.429923	0.000725909	1	0.032533	13	3.12085e-07
2	1	0	0	0	183.279	0.382857	0.382915	0.000159522	1	0.0325353	13	6.10835e-08
2	1	0	0	0	187.979	0.335856	0.336016	0.000105181	1	0.0325341	13	3.53423e-08
2	1	0	1	0	192.679	0.288855	0.288858	8.6336e-05	1	0.032535	13	2.49389e-08
2	1	0	1	0	197.379	0.241854	0.241762	-5.0389e-05	1	0.0325354	13	-1.21821e-08
2	1	0	0	0	202.079	0.194853	0.19517	-0.000140411	1	0.0325352	13	-2.74039e-08
2	1	0	0	0	206.779	0.147852	0.147556	-0.000224992	1	0.0325346	13	-3.3199e-08
2	1	0	1	0	211.48	0.100852	0.100964	-0.000298149	1	0.0325336	13	-3.01024e-08
2	1	0	1	0	216.18	0.0538507	0.0539407	-0.00036006	1	0.0325323	13	-1.94219e-08
2	1	0	1	0	220.88	0.00684982	0.00686086	-0.000402288	1	0.0325307	13	-2.76004e-09
2	0	0	1	1	225.42	0.0385504	0.0385961	0.000615937	2	0.0325323	13	2.37727e-08
2	1	0	1	1	230.12	0.0855513	0.0857279	0.000740757	2	0.0325353	13	6.35036e-08
2	0	0	0	1	234.821	0.132552	0.132737	0.000815952	2	0.0325387	13	1.08307e-07
2	0	0	0	1	239.521	0.179553	0.179998	0.000889701	2	0.0325424	13	1.60144e-07
2	0	0	1	1	244.221	0.226554	0.226412	0.00100129	2	0.0325466	13	2.26705e-07
2	0	0	1	1	248.921	0.273555	0.273302	0.00111071	2	0.0325512	13	3.0356e-07
2	0	0	0	1	253.621	0.320556	0.320446	0.00126661	2	0.0325566	13	4.0588e-07
2	1	0	0	1	258.321	0.367556	0.367862	0.00150938	2	0.0325628	13	5.55243e-07
2	1	0	0	1	263.021	0.414557	0.414877	0.00184584	2	0.0325704	13	7.65798e-07
2	1	0	1	1	267.721	0.461558	0.461749	0.00299869	2	0.0325828	13	1.38464e-06
2	0	0	1	1	272.421	0.508559	0.509085	0.00326056	2	0.0325975	13	1.6599e-06
2	0	0	0	1	277.121	0.55556	0.555783	0.00361205	2	0.0326133	13	2.00752e-06
2	1	0	0	1	281.821	0.602561	0.602854	0.00463323	2	0.0326322	13	2.79316e-06
2	1	0	1	1	286.522	0.649562	0.65019	0.00901687	2	0.0326614	13	5.86268e-06
2	1	0	1	1	291.222	0.696563	0.696599	0.0279673	2	0.0327393	13	1.9482e-05
2	1	0	0	1	295.922	0.743563	0.743276	0.0743398	2	0.0329684	13	5.5255e-05
2	1	0	0	1	300.652	0.790864	0.791181	0.148056	2	0.0334857	12	0.000117139
2	1	0	0	1	305.352	0.837865	0.83818	0.249599	2	0.0344084	12	0.000209209
2	1	0	1	1	310.052	0.884866	0.884923	0.398316	2	0.0359089	12	0.000352479
2	1	0	1	1	314.752	0.931867	0.931959	0.615992	2	0.0382719	12	0.00057408
2	1	0	0	1	319.452	0.978868	0.979114	0.863851	2	0.0417562	12	0.000845809
2	1	0	0	1	324.023	0.975468	0.975434	0.728509	2	0.0457681	12	0.000710612
2	1	0	1	1	328.723	0.928467	0.928639	0.454498	2	0.0484909	12	0.000422065
2	1	0	1	1	333.423	0.881466	0.881765	0.282586	2	0.0501917	12	0.000249174
2	1	0	0	1	338.123	0.834465	0.834738	0.173168	2	0.0512413	12	0.00014455
2	1	0	0	1	342.823	0.787464	0.787564	0.103065	2	0.0518778	12	8.11704e-05
2	1	0	1	1	347.523	0.740463	0.740544	0.0545884	2	0.0522402	12	4.04251e-05
2	1	0	1	1	352.253	0.693163	0.693257	0.0230771	2	0.0524159	13	1.59984e-05
2	1	0	1	1	356.953	0.646162	0.646351	0.00859101	2	0.0524848	13	5.55281e-06
[...]
2	1	0	1	1	399.254	0.223154	0.223454	9.05183e-05	2	0.0525531	13	2.02267e-08
2	1	0	0	1	403.954	0.176153	0.176471	5.18576e-06	2	0.0525536	13	9.15137e-10
2	1	0	0	1	408.654	0.129152	0.129242	-8.39564e-05	2	0.0525537	13	-1.08506e-08
2	1	0	1	1	413.354	0.0821512	0.082324	-0.000138521	2	0.0525535	13	-1.14036e-08
2	1	0	1	1	418.054	0.0351503	0.0353237	-0.000141875	2	0.0525531	13	-5.01154e-09
2	0	0	1	0	422.625	0.0105499	0.0104971	0.000742192	3	0.0525533	13	7.79084e-09
2	0	0	1	0	427.325	0.0575508	0.0577647	0.000956812	3	0.0525573	13	5.52699e-08
2	0	0	1	0	432.025	0.104552	0.105016	0.0010724	3	0.0525618	13	1.12619e-07
2	0	0	0	0	436.725	0.151553	0.151707	0.00113827	3	0.0525667	13	1.72684e-07
2	0	0	0	0	441.425	0.198553	0.198776	0.00122774	3	0.052572	13	2.44045e-07
2	0	0	1	0	446.126	0.245554	0.245683	0.00136812	3	0.0525778	13	3.36123e-07
2	0	0	1	0	450.826	0.292555	0.292464	0.00150949	3	0.0525842	13	4.41471e-07
2	0	0	0	0	455.526	0.339556	0.33929	0.00166092	3	0.0525914	13	5.63533e-07
2	0	0	0	0	460.226	0.386557	0.386602	0.00196931	3	0.0525997	13	7.61342e-07
2	1	0	1	0	464.926	0.433558	0.433799	0.00303142	3	0.0526099	13	1.31503e-06
2	1	0	1	0	469.626	0.480559	0.480625	0.00357924	3	0.0526259	13	1.72027e-06
2	1	0	1	0	474.326	0.52756	0.527457	0.00369163	3	0.0526428	13	1.94718e-06
2	1	0	0	0	479.026	0.57456	0.574592	0.00428847	3	0.0526612	13	2.46412e-06
2	1	0	0	0	483.726	0.621561	0.621874	0.0060572	3	0.0526844	13	3.76682e-06
2	1	0	1	0	488.426	0.668562	0.66869	0.0141587	3	0.0527271	13	9.4678e-06
2	1	0	1	0	493.126	0.715563	0.715438	0.0410897	3	0.0528471	13	2.93972e-05
2	1	0	0	0	497.827	0.762564	0.762917	0.0931061	3	0.0531535	13	7.10322e-05
2	1	0	0	0	502.557	0.809865	0.809905	0.167708	3	0.0537621	12	0.000135827
2	1	0	1	0	507.257	0.856866	0.857221	0.273364	3	0.0547838	12	0.000234333
2	1	0	1	0	511.957	0.903866	0.903876	0.435255	3	0.0564233	12	0.000393417
2	1	0	1	0	516.657	0.950867	0.950949	0.649219	3	0.0589608	12	0.000617374
2	1	0	0	0	521.357	0.997868	0.998005	0.884629	3	0.0625624	12	0.000882864
2	1	0	0	0	525.927	0.956467	0.956592	0.551365	3	0.0657984	12	0.000527431
2	1	0	1	0	530.628	0.909467	0.909702	0.346375	3	0.0678673	12	0.000315098
2	1	0	1	0	535.328	0.862466	0.862582	0.215424	3	0.0691622	12	0.000185821
2	1	0	0	0	540.028	0.815465	0.81563	0.132392	3	0.0699633	12	0.000107983
2	1	0	0	0	544.728	0.768464	0.768386	0.0775832	3	0.0704477	12	5.96138e-05
2	1	0	1	0	549.458	0.721163	0.721145	0.0387371	3	0.0707163	13	2.79351e-05
2	1	0	1	0	554.158	0.674162	0.674393	0.0159541	3	0.0708387	13	1.07593e-05
2	1	0	0	0	558.858	0.627161	0.627425	0.00654969	3	0.0708876	13	4.10944e-06
2	1	0	0	0	563.558	0.58016	0.580255	0.0037307	3	0.0709107	13	2.16476e-06
2	1	0	0	0	568.258	0.53316	0.533094	0.00261208	3	0.0709255	13	1.39248e-06
2	1	0	1	0	572.958	0.486159	0.486453	0.00181995	3	0.070936	13	8.8532e-07
2	1	0	1	0	577.658	0.439158	0.439202	0.00110109	3	0.0709431	13	4.836e-07
2	1	0	0	0	582.359	0.392157	0.392375	0.000434319	3	0.0709465	13	1.70416e-07
2	1	0	0	0	587.059	0.345156	0.345474	7.52962e-05	3	0.0709463	13	2.60129e-08
2	1	0	1	0	591.759	0.298155	0.298093	0.000343399	3	0.070948	13	1.02365e-07
2	1	0	1	0	596.459	0.251154	0.251203	0.000251746	3	0.0709497	13	6.32395e-08
2	1	0	0	0	601.159	0.204153	0.204343	0.000145585	3	0.0709509	13	2.97492e-08
2	1	0	0	0	605.859	0.157153	0.157057	7.75324e-05	3	0.0709516	13	1.2177e-08
2	1	0	0	0	610.559	0.110152	0.110136	-1.90226e-05	3	0.070952	13	-2.09506e-09
2	1	0	1	0	615.259	0.0631509	0.0632922	-5.27682e-05	3	0.0709521	13	-3.33981e-09
2	1	0	1	0	619.959	0.01615	0.0161625	-8.79162e-05	3	0.070952	13	-1.42094e-09
2	1	0	1	0	621.569	-3.09883e-07	0.00019517	-0.00111802	3	0.0709519	13	-2.18204e-10