Folder: EC-Lab-Processing/Data_1 (part 2)

File: 2022_01_24 Co50Ni25Fe25Nx elec1 set1_C05.mpt
EC-Lab ASCII FILE
Nb header lines : 65

Potentio Electrochemical Impedance Spectroscopy

Run on channel : 5 (SN 30436)
User :
CE vs. WE compliance from -10 V to 10 V
Electrode connection : standard
Potential control : Ewe
Ewe ctrl range : min = -10.00 V, max = 10.00 V
Safety Limits :
	Do not start on E overload
Acquisition started on : 01/24/2023 12:26:41.441
Loaded Setting File :  NONE
Saved on :
	File : 2022_01_24 Co50Ni25Fe25Nx elec1 set1_C05.mpr
	Directory : C:\Users\grupogalan\Documents\EC-Lab\Data\Scott\
	Host : 169.254.104.159
Device : VSP (SN 1176)
Address : USB
EC-Lab for windows v11.46 (software)
Internet server v11.40 (firmware)
Command interpretor v11.40 (firmware)
Electrode material :
Initial state :
Electrolyte :
Comments :
Electrode surface area : 0.000 cm²
Characteristic mass : 0.001 g
Equivalent Weight : 0.000 g/eq.
Density : 0.000 g/cm3
Volume (V) : 0.001 cm³
Record Ece
Record Analogic IN 1
Cycle Definition : Charge/Discharge alternance
Mode                Single sine
E (V)               0.0000
vs.                 Eoc
tE (h:m:s)          0:00:0.0000
record              0
dI                  0.000
unit dI             mA
dt (s)              0.000
fi                  200.000
unit fi             kHz
ff                  100.000
unit ff             mHz
Nd                  6
Points              per decade
spacing             Logarithmic
Va (mV)             10.0
pw                  0.10
Na                  2
corr                0
E range min (V)     -10.000
E range max (V)     10.000
I Range             Auto
Bandwidth           5
nc cycles           0
goto Ns'            0
nr cycles           0
inc. cycle          0

freq/Hz	Re(Z)/Ohm	-Im(Z)/Ohm	|Z|/Ohm	Phase(Z)/deg	time/s	<Ewe>/V	<I>/mA	Cs/µF	Cp/µF	cycle number	I Range	|Ewe|/V	|I|/A	Ns	(Q-Qo)/mA.h	<Ece>/V	|Ece|/V	Phase(Zce)/deg	|Zce|/Ohm	Re(Zce)/Ohm	-Im(Zce)/Ohm	Phase(Zwe-ce)/deg	|Zwe-ce|/Ohm	Re(Zwe-ce)/Ohm	-Im(Zwe-ce)/Ohm	Analog IN 1/V	Re(Y)/Ohm-1	Im(Y)/Ohm-1	|Y|/Ohm-1	Phase(Y)/deg	dq/mA.h
199998	1.60028	-1.35479	2.09674	40.2511	2.37956	-0.151099	-0.180429	-0.587386	-0.245231	1	9	0.00729872	0.00348098	0	-2.72416e-05	0.10395	0.0013818	-56.0103	0.396955	0.221916	0.329131	29.3738	2.09102	1.82219	-1.02566	-0.000497695	0.364003	-0.308163	0.47693	-40.2511	-2.72416e-05
135123	1.15306	-0.559562	1.28166	25.8865	2.75656	-0.151241	-0.184305	-2.10496	-0.401227	1	9	0.00968194	0.00755419	0	-4.5014e-05	0.111132	0.00551481	6.29131	0.730033	0.725637	-0.0799997	18.8	1.98458	1.8787	-0.639562	0.000144231	0.701947	-0.340643	0.780235	-25.8865	-1.77724e-05
91291.2	1.08672	-0.207224	1.1063	10.796	3.25554	-0.15097	-0.16649	-8.41302	-0.295179	1	9	0.0099128	0.00896033	0	-6.71723e-05	0.110158	0.00695742	14.3888	0.776469	0.752113	-0.192953	12.2776	1.88187	1.83883	-0.400177	0.000465194	0.887916	-0.169314	0.903915	-10.796	-2.21583e-05
61674.2	1.07966	-0.0284051	1.08003	1.50707	3.75452	-0.150978	-0.153445	-90.8492	-0.0628407	1	9	0.00990831	0.00917411	0	-7.63084e-05	0.112087	0.00739557	13.4822	0.806134	0.783919	-0.187944	6.62204	1.87609	1.86358	-0.216349	-1.62509e-05	0.92558	-0.0243514	0.925901	-1.50707	-9.13611e-06
41669.8	1.10567	0.0866625	1.10906	-4.48169	4.13152	-0.15123	-0.159036	44.0725	0.269104	1	9	0.010144	0.00914645	0	-7.30793e-05	0.106643	0.00730762	7.16537	0.798958	0.792718	-0.0996568	0.392178	1.89843	1.89839	-0.0129943	0.000144231	0.898906	0.0704564	0.901663	4.48169	3.22907e-06
28151	1.13898	0.189844	1.1547	-9.463	4.63053	-0.150986	-0.157135	29.7803	0.804987	1	9	0.0103765	0.00898634	0	-0.000117354	0.107541	0.00686843	4.19623	0.764319	0.76227	-0.0559273	-4.02904	1.90596	1.90125	0.133917	-9.64916e-05	0.854244	0.142384	0.866029	9.463	-4.42744e-05
19020.9	1.14324	0.308363	1.18409	-15.0951	5.00755	-0.151149	-0.113269	27.1347	1.84026	1	9	0.0109552	0.00925198	0	-0.000214384	0.101485	0.00720386	1.12707	0.778629	0.778478	-0.0153155	-8.67041	1.94393	1.92171	0.293048	-9.64916e-05	0.815388	0.219933	0.844529	15.0951	-9.70303e-05
12850.7	1.15198	0.488285	1.25119	-22.9704	5.38453	-0.151085	-0.158588	25.3641	3.86294	1	9	0.0102764	0.00821332	0	-0.00021373	0.109107	0.00635816	-1.35724	0.774129	0.773911	0.0183361	-14.7382	1.99141	1.92589	0.506621	-9.64916e-05	0.735864	0.311907	0.799238	22.9704	6.54113e-07
8684.68	1.21978	0.718792	1.41581	-30.5101	5.63954	-0.151069	-0.161682	25.4955	6.57144	1	9	0.00993021	0.00701381	0	-0.000224362	0.107865	0.0054549	-2.18335	0.777738	0.777173	0.0296298	-20.5451	2.13259	1.99695	0.748422	6.39899e-05	0.608514	0.358587	0.70631	30.5101	-1.06322e-05
5864.01	1.25546	0.991598	1.59983	-38.3027	6.01652	-0.150864	-0.169024	27.3709	10.5151	1	9	0.0099594	0.0062253	0	-0.000232222	0.110291	0.00468438	-0.707912	0.752474	0.752417	0.00929687	-26.4955	2.24351	2.00788	1.00089	0.000224471	0.49052	0.387427	0.625068	38.3027	-7.85953e-06
3960.08	1.29585	1.43975	1.93704	-48.0111	6.31785	-0.151468	-0.233128	27.9145	15.4216	1	9	0.0094474	0.00487725	0	-0.000255095	0.102498	0.00394658	-7.71326	0.809182	0.80186	0.108605	-36.4316	2.60726	2.09771	1.54835	0.000384953	0.345366	0.383718	0.516253	48.0111	-2.28731e-05
2678.72	1.40123	2.03284	2.46899	-55.4216	6.95208	-0.15094	-0.171782	29.2273	19.8134	1	9	0.0101702	0.00411919	0	-0.000283108	0.116136	0.00332247	-5.06299	0.806583	0.803436	0.0711816	-43.6619	3.04754	2.20467	2.10403	-9.64916e-05	0.229865	0.333477	0.405024	55.4216	-2.8013e-05
1808.26	1.51377	2.95075	3.31639	-62.8417	7.39808	-0.150823	-0.1628	29.8281	23.6135	1	9	0.0100322	0.00302504	0	-0.00030488	0.109623	0.00265135	-9.60416	0.876467	0.864182	0.14623	-52.4819	3.9046	2.37795	3.09698	0.000224471	0.137635	0.268289	0.301533	62.8417	-2.17725e-05
1221.96	1.57301	4.2065	4.49099	-69.4968	8.08651	-0.150925	-0.0270522	30.9631	27.1645	1	10	0.0102257	0.00227693	0	-0.000320201	0.109604	0.00192267	-13.0807	0.844413	0.822502	0.191111	-61.4215	5.00774	2.39551	4.39761	0.000224471	0.0779916	0.208563	0.222668	69.4968	-1.53205e-05
825.264	1.89288	6.09895	6.38594	-72.7577	8.53178	-0.150898	-0.0274251	31.6207	28.8425	1	10	0.0100646	0.00157606	0	-0.000324469	0.108668	0.00164213	-20.0181	1.04193	0.978977	0.356668	-66.0176	7.06559	2.87185	6.45562	6.39899e-05	0.0464166	0.149557	0.156594	72.7577	-4.26886e-06
558.036	2.34201	8.75708	9.06485	-75.0271	8.97858	-0.151245	-0.0263737	32.5686	30.3946	1	10	0.00985891	0.0010876	0	-0.000327418	0.107197	0.00103178	-17.5163	0.94868	0.904691	0.285531	-70.2496	9.6078	3.2467	9.04261	0.000224471	0.0285015	0.106571	0.110316	75.0271	-2.94901e-06
377.051	2.58195	12.4027	12.6686	-78.2403	9.42181	-0.151156	-0.0248004	34.0334	32.6197	1	10	0.00958064	0.000756253	0	-0.000330144	0.108725	0.00114823	-3.7635	1.51831	1.51504	0.0996591	-71.8561	13.1565	4.09699	12.5023	-9.64916e-05	0.0160877	0.0772787	0.0789355	78.2403	-2.72553e-06
254.755	3.78963	18.2378	18.6274	-78.2616	9.86811	-0.151039	-0.0253559	34.255	32.8372	1	10	0.0097465	0.000523235	0	-0.000332735	0.104484	0.000889946	-6.1671	1.70085	1.69101	0.18272	-73.4307	19.2186	5.48065	18.4205	0.000304712	0.0109218	0.0525617	0.0536844	78.2616	-2.59084e-06
172.037	4.06934	26.932	27.2377	-81.4078	10.5505	-0.150992	-0.00200545	34.3502	33.5835	1	11	0.0100344	0.000368402	0	-0.00033533	0.106872	0.000485971	4.88988	1.31913	1.31433	-0.112444	-78.6495	27.3546	5.38367	26.8196	-0.000176732	0.00548507	0.0363017	0.0367138	81.4078	-2.59565e-06
116.227	5.36007	37.835	38.2128	-81.9366	10.9907	-0.150938	-0.00273544	36.1924	35.4803	1	11	0.00969396	0.000253684	0	-0.000335616	0.109852	0.000442072	-4.75226	1.74261	1.73662	0.144371	-79.416	38.6367	7.09669	37.9794	6.39899e-05	0.00367073	0.0259105	0.0261692	81.9366	-2.85558e-07
78.5176	6.83758	55.5345	55.9539	-82.9809	11.4447	-0.150973	-0.00304898	36.4998	35.9547	1	11	0.0098302	0.000175684	0	-0.000335792	0.111036	0.000120916	-82.2229	0.688256	0.0931348	0.681925	-82.9717	56.6421	6.93071	56.2164	-1.62509e-05	0.00218395	0.0177379	0.0178719	82.9809	-1.76064e-07
53.0478	10.5407	76.4723	77.1953	-82.152	11.9052	-0.15109	-0.00340651	39.2327	38.5012	1	11	0.00939221	0.000121668	0	-0.00033626	0.109393	0.000281361	-81.8232	2.31253	0.328906	2.28902	-82.1424	79.5078	10.8696	78.7613	0.000144231	0.00176883	0.0128328	0.0129542	82.152	-4.67605e-07
35.8372	16.3449	112.579	113.76	-81.7392	12.3412	-0.151073	-0.00309372	39.4483	38.634	1	11	0.00981487	8.62773e-05	0	-0.000336641	0.115239	0.000299563	-61.4822	3.4721	1.65769	3.05083	-81.1506	117.023	18.0026	115.63	0.000304712	0.00126301	0.00869927	0.00879047	81.7392	-3.8116e-07
24.2323	29.4885	156.746	159.496	-79.3455	12.8002	-0.150927	-0.00293266	41.9014	40.4691	1	11	0.00959806	6.01775e-05	0	-0.000337016	0.107904	0.000383313	47.3088	6.36972	4.31896	-4.68187	-77.4657	155.777	33.8075	152.064	0.000465194	0.00115919	0.00616166	0.00626975	79.3455	-3.74708e-07
16.367	43.9292	237.482	241.511	-79.5199	13.4371	-0.150964	-5.24029e-05	40.947	39.5922	1	12	0.00993917	4.11542e-05	0	-0.000336867	0.10819	0.000386321	34.7391	9.38715	7.71394	-5.34918	-77.4575	237.808	51.6432	232.133	0.000384953	0.00075315	0.00407153	0.00414061	79.5199	1.48576e-07
11.0502	48.5196	317.506	321.191	-81.3116	13.8429	-0.150712	0.000387382	45.3626	44.3275	1	12	0.00958377	2.98382e-05	0	-0.00033704	0.108477	0.0001518	-13.2277	5.08745	4.95248	1.16412	-80.4746	323.125	53.472	318.67	-0.000417455	0.000470315	0.00307768	0.00311341	81.3116	-1.7262e-07
7.46893	78.1974	465.054	471.583	-80.4552	14.1507	-0.151326	-0.000895853	45.8203	44.5604	1	12	0.00966706	2.04992e-05	0	-0.000337012	0.104007	8.66972e-05	4.34382	4.2293	4.21715	-0.320333	-79.9439	471.985	82.4145	464.734	0.000224471	0.000351622	0.00209116	0.00212052	80.4552	2.80637e-08
5.04683	139.676	635.284	650.458	-77.6	14.593	-0.151079	-0.0013261	49.6401	47.3512	1	12	0.0097375	1.49702e-05	0	-0.000337073	0.108515	0.000299849	-52.8859	20.0297	12.086	15.9724	-76.8825	668.706	151.762	651.257	-0.000818658	0.000330129	0.00150151	0.00153738	77.6	-6.1317e-08
3.4086	212.273	978.609	1001.37	-77.7614	15.5703	-0.150979	2.70124e-05	47.7129	45.5688	1	13	0.0099342	9.92064e-06	0	-0.000337202	0.122325	0.000245428	9.02356	24.7391	24.4329	-3.8801	-76.3504	1003.06	236.706	974.728	0.000304712	0.000211694	0.00097594	0.000998636	77.7614	-1.29035e-07
2.30321	294.443	1340.64	1372.59	-77.6129	16.5073	-0.150903	-0.000173106	51.5436	49.1717	1	13	0.00974506	7.09976e-06	0	-0.000337355	0.105019	0.000180819	-60.4511	25.4684	12.5601	22.1558	-77.3046	1396.95	307.003	1362.79	-0.000256973	0.000156286	0.000711589	0.000728549	77.6129	-1.53186e-07
1.55627	491.963	1818.22	1883.6	-74.8598	17.88	-0.151075	-0.000182691	56.2454	52.4085	1	13	0.00958884	5.09069e-06	0	-0.000337407	0.110673	0.000155288	65.7219	30.5044	12.5424	-27.8066	-74.2632	1860.14	504.505	1790.42	0.000224471	0.000138661	0.00051247	0.000530897	74.8598	-5.19434e-08

File: 2022_01_24 Co50Ni25Fe25Nx elec1 Tafel_C02.mpt
EC-Lab ASCII FILE
Nb header lines : 53

Chronopotentiometry

Run on channel : 2 (SN 12477)
User :
CE vs. WE compliance from -10 V to 10 V
Electrode connection : standard
Potential control : Ewe
Ewe ctrl range : min = -2.50 V, max = 2.50 V
Safety Limits :
	Do not start on E overload
Acquisition started on : 01/24/2023 17:35:55.780
Loaded Setting File :  C:\Users\grupogalan\Documents\EC-Lab\Data\Scott\2022_01_20 Ni60Co30Fe10Ox set1.1.mps
Saved on :
	File : 2022_01_24 Co50Ni25Fe25Nx elec1 Tafel_C02.mpr
	Directory : C:\Users\grupogalan\Documents\EC-Lab\Data\Scott\
	Host : 169.254.104.159
Device : VSP (SN 1176)
Address : USB
EC-Lab for windows v11.46 (software)
Internet server v11.40 (firmware)
Command interpretor v11.40 (firmware)
Electrode material :
Initial state :
Electrolyte :
Comments :
Electrode surface area : 0.000 cm²
Characteristic mass : 0.001 g
Equivalent Weight : 0.000 g/eq.
Density : 0.000 g/cm3
Volume (V) : 0.001 cm³
Cycle Definition : Charge/Discharge alternance
Ns                  0                   1                   2                   3                   4                   5                   6                   7                   8                   9                   10                  11                  12
Is                  10.000              18.000              32.000              56.000              100.000             178.000             316.000             562.000             1.000               1.778               3.162               5.623               10.000
unit Is             µA                  µA                  µA                  µA                  µA                  µA                  µA                  µA                  mA                  mA                  mA                  mA                  mA
vs.                 <None>              <None>              <None>              <None>              <None>              <None>              <None>              <None>              <None>              <None>              <None>              <None>              <None>
ts (h:m:s)          0:03:0.0000         0:03:0.0000         0:03:0.0000         0:03:0.0000         0:03:0.0000         0:03:0.0000         0:03:0.0000         0:03:0.0000         0:03:0.0000         0:03:0.0000         0:03:0.0000         0:03:0.0000         0:03:0.0000
EM (V)              pass                pass                pass                pass                pass                pass                pass                pass                pass                pass                pass                pass                pass
dQM                 500.000             900.000             1.600               2.800               5.000               8.900               15.800              28.100              50.000              88.900              158.100             281.150             500.000
unit dQM            nA.h                nA.h                µA.h                µA.h                µA.h                µA.h                µA.h                µA.h                µA.h                µA.h                µA.h                µA.h                µA.h
record              <Ewe>               <Ewe>               <Ewe>               <Ewe>               <Ewe>               <Ewe>               <Ewe>               <Ewe>               <Ewe>               <Ewe>               <Ewe>               <Ewe>               <Ewe>
dEs (mV)            0.00                0.00                0.00                0.00                0.00                0.00                0.00                0.00                0.00                0.00                0.00                0.00                0.00
dts (s)             1.0000              1.0000              1.0000              1.0000              1.0000              1.0000              1.0000              1.0000              1.0000              1.0000              1.0000              1.0000              1.0000
E range min (V)     -2.500              -2.500              -2.500              -2.500              -2.500              -2.500              -2.500              -2.500              -2.500              -2.500              -2.500              -2.500              -2.500
E range max (V)     2.500               2.500               2.500               2.500               2.500               2.500               2.500               2.500               2.500               2.500               2.500               2.500               2.500
I Range             10 mA               10 mA               10 mA               10 mA               10 mA               10 mA               10 mA               10 mA               10 mA               10 mA               10 mA               10 mA               10 mA
Bandwidth           5                   5                   5                   5                   5                   5                   5                   5                   5                   5                   5                   5                   5
goto Ns'            0                   0                   0                   0                   0                   0                   0                   0                   0                   0                   0                   0                   0
nc cycles           0                   0                   0                   0                   0                   0                   0                   0                   0                   0                   0                   0                   0

mode	ox/red	error	control changes	Ns changes	counter inc.	Ns	time/s	control/mA	<Ewe>/V	I/mA	dQ/C	(Q-Qo)/C	half cycle	Q charge/discharge/mA.h	I Range	Energy charge/W.h	Energy discharge/W.h	Capacitance charge/µF	Capacitance discharge/µF	Q discharge/mA.h	Q charge/mA.h	Capacity/mA.h	Efficiency/%	cycle number	P/W
1	1	0	0	0	0	0	1	0.01	-0.206066	0.0112622	1.10491e-05	1.10491e-05	0	3.0692e-06	11	6.32458e-10	0.000000000000000E+000	0.000000000000000E+000	0.000000000000000E+000	0.000000000000000E+000	3.0692e-06	3.0692e-06	0.0000000E+000	0.000000000000000E+000	-2.32075e-06
1	1	0	0	0	0	0	58	0.01	0.112898	0.0116439	0.000671423	0.000671423	0	0.000186506	11	1.24237e-08	0.000000000000000E+000	2105.01	0.000000000000000E+000	0.000000000000000E+000	0.000186506	0.000186506	0.0000000E+000	0.000000000000000E+000	1.31458e-06
1	1	0	0	0	0	0	115	0.01	0.213087	0.0124074	0.00133257	0.00133257	0	0.000370159	11	4.27063e-08	0.000000000000000E+000	3179.21	0.000000000000000E+000	0.000000000000000E+000	0.000370159	0.000370159	0.0000000E+000	0.000000000000000E+000	2.64386e-06
1	1	0	0	0	0	0	172	0.01	0.29913	0.0115167	0.00199378	0.00199378	0	0.000553829	11	9.02345e-08	0.000000000000000E+000	3946.56	0.000000000000000E+000	0.000000000000000E+000	0.000553829	0.000553829	0.0000000E+000	0.000000000000000E+000	3.44498e-06
1	1	0	1	0	0	1	228.05	0.018	0.406591	0.0181337	0.000910636	0.00299769	0	0.000832693	11	1.96365e-07	0.000000000000000E+000	4892.94	0.000000000000000E+000	0.000000000000000E+000	0.000832693	0.000832693	0.0000000E+000	0.000000000000000E+000	7.373e-06
1	1	0	1	0	0	1	285.05	0.018	0.417759	0.0183246	0.00199188	0.00407894	0	0.00113304	11	3.20637e-07	0.000000000000000E+000	6538.6	0.000000000000000E+000	0.000000000000000E+000	0.00113304	0.00113304	0.0000000E+000	0.000000000000000E+000	7.65525e-06
[...]
1	1	0	0	0	0	8	1589.05	1	0.703156	1.00121	0.149196	0.380108	0	0.105586	11	7.01063e-05	0.000000000000000E+000	418058	0.000000000000000E+000	0.000000000000000E+000	0.105586	0.105586	0.0000000E+000	0.000000000000000E+000	0.000704004
1	1	0	1	0	0	9	1645.05	1.778	0.733663	1.77864	0.0444701	0.455619	0	0.126561	11	8.52326e-05	0.000000000000000E+000	484841	0.000000000000000E+000	0.000000000000000E+000	0.126561	0.126561	0.0000000E+000	0.000000000000000E+000	0.00130492
1	1	0	1	0	0	9	1702.05	1.778	0.734018	1.77909	0.145863	0.557012	0	0.154726	11	0.000105899	0.000000000000000E+000	592513	0.000000000000000E+000	0.000000000000000E+000	0.154726	0.154726	0.0000000E+000	0.000000000000000E+000	0.00130588
1	1	0	1	0	0	9	1759.05	1.778	0.734194	1.77858	0.247256	0.658405	0	0.18289	11	0.000126574	0.000000000000000E+000	700237	0.000000000000000E+000	0.000000000000000E+000	0.18289	0.18289	0.0000000E+000	0.000000000000000E+000	0.00130582
1	1	0	0	0	0	10	1815.05	3.162	0.769287	3.16332	0.0474467	0.778783	0	0.216329	11	0.000151587	0.000000000000000E+000	798463	0.000000000000000E+000	0.000000000000000E+000	0.216329	0.216329	0.0000000E+000	0.000000000000000E+000	0.0024335
1	1	0	0	0	0	10	1872.05	3.162	0.770595	3.16338	0.227747	0.959083	0	0.266412	11	0.00019015	0.000000000000000E+000	982001	0.000000000000000E+000	0.000000000000000E+000	0.266412	0.266412	0.0000000E+000	0.000000000000000E+000	0.00243769
1	1	0	0	0	0	10	1929.05	3.162	0.771794	3.16255	0.408046	1.13938	0	0.316495	11	0.000228775	0.000000000000000E+000	1.16518e+06	0.000000000000000E+000	0.000000000000000E+000	0.316495	0.316495	0.0000000E+000	0.000000000000000E+000	0.00244084
1	1	0	1	0	0	11	1985.05	5.623	0.813277	5.62421	0.0281195	1.32882	0	0.369117	11	0.000269731	0.000000000000000E+000	1.30361e+06	0.000000000000000E+000	0.000000000000000E+000	0.369117	0.369117	0.0000000E+000	0.000000000000000E+000	0.00457404
1	1	0	1	0	0	11	2042.05	5.623	0.816722	5.62396	0.348688	1.64939	0	0.458164	11	0.000342317	0.000000000000000E+000	1.61264e+06	0.000000000000000E+000	0.000000000000000E+000	0.458164	0.458164	0.0000000E+000	0.000000000000000E+000	0.00459321
1	1	0	1	0	0	11	2099.05	5.623	0.819385	5.62459	0.669258	1.96996	0	0.547211	11	0.000415165	0.000000000000000E+000	1.92107e+06	0.000000000000000E+000	0.000000000000000E+000	0.547211	0.547211	0.0000000E+000	0.000000000000000E+000	0.00460871
1	1	0	1	0	0	11	2156.05	5.623	0.821456	5.62389	0.989828	2.29053	0	0.636259	11	0.000488235	0.000000000000000E+000	2.22918e+06	0.000000000000000E+000	0.000000000000000E+000	0.636259	0.636259	0.0000000E+000	0.000000000000000E+000	0.00461978
1	1	0	0	0	0	12	2212.05	10	0.879285	10.0014	0.52007	2.8331	0	0.786972	11	0.000619783	0.000000000000000E+000	2.61031e+06	0.000000000000000E+000	0.000000000000000E+000	0.786972	0.786972	0.0000000E+000	0.000000000000000E+000	0.00879405
1	1	0	0	0	0	12	2269.05	10	0.887585	10.0016	1.09015	3.40318	0	0.945327	11	0.000759699	0.000000000000000E+000	3.11176e+06	0.000000000000000E+000	0.000000000000000E+000	0.945327	0.945327	0.0000000E+000	0.000000000000000E+000	0.00887729
1	1	0	0	0	0	12	2326.05	10	0.895171	10.0017	1.66022	3.97325	0	1.10368	11	0.000900868	0.000000000000000E+000	3.60799e+06	0.000000000000000E+000	0.000000000000000E+000	1.10368	1.10368	0.0000000E+000	0.000000000000000E+000	0.00895322
1	1	0	0	0	0	12	2340.05	10	0.895558	10.001	1.80025	4.11327	0	1.14258	11	0.000935719	0.000000000000000E+000	3.73383e+06	0.000000000000000E+000	0.000000000000000E+000	1.14258	1.14258	0.0000000E+000	0.000000000000000E+000	0.00895652