Folder: EC-Lab-Processing/Lares Oxides (part 8)

File: 2024-6-21 Co80Fe20Ox on FTO_1_00mg_CP1_C02.mpt
EC-Lab ASCII FILE
Nb header lines : 54

Chronopotentiometry

Run on channel : 2 (SN 39659)
User :
CE vs. WE compliance from -18 V to 2 V
Electrode connection : standard
Potential control : Ewe
Ewe ctrl range : min = 0.00 V, max = 5.00 V
Safety Limits :
	Do not start on E overload
Acquisition started on : 06/21/2024 10:05:46.800
Technique started on : 06/21/2024 10:05:47.800
Loaded Setting File :  NONE
Saved on :
	File : 2024-6-21 Co80Fe20Ox on FTO_1_00mg_CP1_C02.mpr
	Directory : C:\Users\sfolkman\OneDrive - New Mexico State University\Folkman Group Folder\Scott\
	Host : 172.24.124.15
Device : VSP (SN 1910)
Address : USB
EC-Lab for windows v11.46 (software)
Internet server v11.40 (firmware)
Command interpretor v11.40 (firmware)
Electrode material :
Initial state :
Electrolyte :
Comments :
Electrode surface area : 0.001 cm²
Characteristic mass : 0.001 g
Equivalent Weight : 0.000 g/eq.
Density : 0.000 g/cm3
Volume (V) : 0.001 cm³
Record Ece
Cycle Definition : Charge/Discharge alternance
Is                  10.000
unit Is             mA
vs.                 <None>
ts (h:m:s)          48:00:0.0000
EM (V)              5.000
dQM                 480.000
unit dQM            mA.h
record              <Ewe>
dEs (mV)            0.00
dts (s)             1.0000
E range min (V)     0.000
E range max (V)     5.000
I Range             10 mA
Bandwidth           5
goto Ns'            0
nc cycles           0

mode	ox/red	error	control changes	Ns changes	counter inc.	Ns	time/s	control/mA	<Ewe>/V	I/mA	dQ/C	(Q-Qo)/C	half cycle	Q charge/discharge/mA.h	I Range	<Ece>/V	Energy charge/W.h	Energy discharge/W.h	Capacitance charge/µF	Capacitance discharge/µF	Q discharge/mA.h	Q charge/mA.h	Capacity/mA.h	Efficiency/%	cycle number	P/W	Ewe-Ece/V
1	1	0	1	0	0	0	1	10	1.00716	10.0047	0.00950185	0.00950185	0	0.0026394	11	-0.988845	2.65831e-06	0.000000000000000E+000	0.000000000000000E+000	0.000000000000000E+000	0.000000000000000E+000	0.0026394	0.0026394	0.0000000E+000	0.000000000000000E+000	0.0100764	1.99601
1	1	0	1	0	0	0	138	10	1.07159	10.0045	1.38003	1.38003	0	0.383342	11	-1.06468	0.000402121	0.000000000000000E+000	2.14204e+07	0.000000000000000E+000	0.000000000000000E+000	0.383342	0.383342	0.0000000E+000	0.000000000000000E+000	0.0107208	2.13627
1	1	0	1	0	0	0	275	10	1.10005	10.0036	2.75055	2.75055	0	0.764041	11	-1.06455	0.000816212	0.000000000000000E+000	2.96124e+07	0.000000000000000E+000	0.000000000000000E+000	0.764041	0.764041	0.0000000E+000	0.000000000000000E+000	0.0110044	2.1646
1	1	0	1	0	0	0	412	10	1.11897	10.004	4.12106	4.12106	0	1.14474	11	-1.06577	0.00123885	0.000000000000000E+000	3.68578e+07	0.000000000000000E+000	0.000000000000000E+000	1.14474	1.14474	0.0000000E+000	0.000000000000000E+000	0.0111942	2.18475
1	1	0	1	0	0	0	549	10	1.13384	10.0041	5.49158	5.49158	0	1.52544	11	-1.06836	0.00166779	0.000000000000000E+000	4.33506e+07	0.000000000000000E+000	0.000000000000000E+000	1.52544	1.52544	0.0000000E+000	0.000000000000000E+000	0.0113431	2.2022
1	1	0	1	0	0	0	686	10	1.14919	10.0036	6.86209	6.86209	0	1.90613	11	-1.07226	0.00210264	0.000000000000000E+000	4.8317e+07	0.000000000000000E+000	0.000000000000000E+000	1.90613	1.90613	0.0000000E+000	0.000000000000000E+000	0.011496	2.22145
1	1	0	1	0	0	0	823	10	1.16117	10.0034	8.23259	8.23259	0	2.28683	11	-1.07489	0.00254225	0.000000000000000E+000	5.34551e+07	0.000000000000000E+000	0.000000000000000E+000	2.28683	2.28683	0.0000000E+000	0.000000000000000E+000	0.0116157	2.23606
1	1	0	1	0	0	0	960	10	1.17036	10.0033	9.6031	9.6031	0	2.66753	11	-1.07783	0.00298607	0.000000000000000E+000	5.88425e+07	0.000000000000000E+000	0.000000000000000E+000	2.66753	2.66753	0.0000000E+000	0.000000000000000E+000	0.0117075	2.2482
1	1	0	1	0	0	0	1097	10	1.17843	10.0038	10.9736	10.9736	0	3.04822	11	-1.07461	0.00343331	0.000000000000000E+000	6.40744e+07	0.000000000000000E+000	0.000000000000000E+000	3.04822	3.04822	0.0000000E+000	0.000000000000000E+000	0.0117887	2.25304
1	1	0	1	0	0	0	1234	10	1.18694	10.0038	12.3441	12.3441	0	3.42892	11	-1.07628	0.00388359	0.000000000000000E+000	6.86625e+07	0.000000000000000E+000	0.000000000000000E+000	3.42892	3.42892	0.0000000E+000	0.000000000000000E+000	0.011874	2.26322
1	1	0	1	0	0	0	1371	10	1.19213	10.0036	13.7146	13.7146	0	3.80962	11	-1.07762	0.00433682	0.000000000000000E+000	7.41486e+07	0.000000000000000E+000	0.000000000000000E+000	3.80962	3.80962	0.0000000E+000	0.000000000000000E+000	0.0119256	2.26974
1	1	0	1	0	0	0	1508	10	1.20284	10.0036	15.0851	15.0851	0	4.19031	11	-1.08008	0.00479273	0.000000000000000E+000	7.70918e+07	0.000000000000000E+000	0.000000000000000E+000	4.19031	4.19031	0.0000000E+000	0.000000000000000E+000	0.0120327	2.28292
1	1	0	1	0	0	0	1645	10	1.21498	10.0036	16.4556	16.4556	0	4.57101	11	-1.0803	0.00525316	0.000000000000000E+000	7.91831e+07	0.000000000000000E+000	0.000000000000000E+000	4.57101	4.57101	0.0000000E+000	0.000000000000000E+000	0.0121542	2.29528
1	1	0	1	0	0	0	1782	10	1.22496	10.004	17.8262	17.8262	0	4.95171	11	-1.08364	0.00571747	0.000000000000000E+000	8.18462e+07	0.000000000000000E+000	0.000000000000000E+000	4.95171	4.95171	0.0000000E+000	0.000000000000000E+000	0.0122546	2.30861
1	1	0	1	0	0	0	1919	10	1.23393	10.0044	19.1967	19.1967	0	5.33241	11	-1.08681	0.00618564	0.000000000000000E+000	8.46523e+07	0.000000000000000E+000	0.000000000000000E+000	5.33241	5.33241	0.0000000E+000	0.000000000000000E+000	0.0123448	2.32074
1	1	0	1	0	0	0	2056	10	1.24474	10.0043	20.5672	20.5672	0	5.71311	11	-1.08784	0.00665748	0.000000000000000E+000	8.65707e+07	0.000000000000000E+000	0.000000000000000E+000	5.71311	5.71311	0.0000000E+000	0.000000000000000E+000	0.0124528	2.33258
1	1	0	1	0	0	0	2193	10	1.25725	10.0046	21.9377	21.9377	0	6.09381	11	-1.09107	0.00713358	0.000000000000000E+000	8.77217e+07	0.000000000000000E+000	0.000000000000000E+000	6.09381	6.09381	0.0000000E+000	0.000000000000000E+000	0.0125782	2.34832
1	1	0	1	0	0	0	2330	10	1.2691	10.0038	23.3082	23.3082	0	6.4745	11	-1.09308	0.00761442	0.000000000000000E+000	8.89841e+07	0.000000000000000E+000	0.000000000000000E+000	6.4745	6.4745	0.0000000E+000	0.000000000000000E+000	0.0126958	2.36218
1	1	0	1	0	0	0	2467	10	1.27921	10.0041	24.6787	24.6787	0	6.8552	11	-1.09399	0.00810006	0.000000000000000E+000	9.07141e+07	0.000000000000000E+000	0.000000000000000E+000	6.8552	6.8552	0.0000000E+000	0.000000000000000E+000	0.0127974	2.37321
1	1	0	1	0	0	0	2604	10	1.29361	10.0036	26.0492	26.0492	0	7.2359	11	-1.09505	0.00859006	0.000000000000000E+000	9.09408e+07	0.000000000000000E+000	0.000000000000000E+000	7.2359	7.2359	0.0000000E+000	0.000000000000000E+000	0.0129408	2.38865
1	1	0	1	0	0	0	2741	10	1.30346	10.0049	27.4197	27.4197	0	7.6166	11	-1.09798	0.00908455	0.000000000000000E+000	9.25431e+07	0.000000000000000E+000	0.000000000000000E+000	7.6166	7.6166	0.0000000E+000	0.000000000000000E+000	0.013041	2.40143
1	1	0	1	0	0	0	2878	10	1.31729	10.004	28.7903	28.7903	0	7.99729	11	-1.09959	0.00958356	0.000000000000000E+000	9.28341e+07	0.000000000000000E+000	0.000000000000000E+000	7.99729	7.99729	0.0000000E+000	0.000000000000000E+000	0.0131781	2.41688
1	1	0	1	0	0	0	3015	10	1.33456	10.0044	30.1608	30.1608	0	8.37799	11	-1.10169	0.0100869	0.000000000000000E+000	9.21244e+07	0.000000000000000E+000	0.000000000000000E+000	8.37799	8.37799	0.0000000E+000	0.000000000000000E+000	0.0133514	2.43625
[...]
1	1	0	1	0	0	0	3837	10	1.3496	10.004	38.3838	38.3838	0	10.6622	11	-1.1126	0.0131755	0.000000000000000E+000	1.1209e+08	0.000000000000000E+000	0.000000000000000E+000	10.6622	10.6622	0.0000000E+000	0.000000000000000E+000	0.0135014	2.4622
1	1	0	1	0	0	0	3974	10	1.34805	10.0044	39.7543	39.7543	0	11.0429	11	-1.11488	0.0136862	0.000000000000000E+000	1.1662e+08	0.000000000000000E+000	0.000000000000000E+000	11.0429	11.0429	0.0000000E+000	0.000000000000000E+000	0.0134864	2.46293
1	1	0	1	0	0	0	4111	10	1.32628	10.0047	41.1248	41.1248	0	11.4236	11	-1.11553	0.0141952	0.000000000000000E+000	1.28872e+08	0.000000000000000E+000	0.000000000000000E+000	11.4236	11.4236	0.0000000E+000	0.000000000000000E+000	0.013269	2.44181
1	1	0	1	0	0	0	4248	10	1.31682	10.0039	42.4953	42.4953	0	11.8043	11	-1.11749	0.0147045	0.000000000000000E+000	1.37234e+08	0.000000000000000E+000	0.000000000000000E+000	11.8043	11.8043	0.0000000E+000	0.000000000000000E+000	0.0131733	2.43431
1	1	0	1	0	0	0	4385	10	1.34632	10.0039	43.8658	43.8658	0	12.185	11	-1.11951	0.0152146	0.000000000000000E+000	1.29339e+08	0.000000000000000E+000	0.000000000000000E+000	12.185	12.185	0.0000000E+000	0.000000000000000E+000	0.0134684	2.46583
1	1	0	1	0	0	0	4522	10	1.33061	10.0028	45.2364	45.2364	0	12.5657	11	-1.12113	0.0157223	0.000000000000000E+000	1.39859e+08	0.000000000000000E+000	0.000000000000000E+000	12.5657	12.5657	0.0000000E+000	0.000000000000000E+000	0.0133098	2.45173
1	1	0	1	0	0	0	4659	10	1.33825	10.0027	46.6069	46.6069	0	12.9464	11	-1.12302	0.016234	0.000000000000000E+000	1.4077e+08	0.000000000000000E+000	0.000000000000000E+000	12.9464	12.9464	0.0000000E+000	0.000000000000000E+000	0.0133861	2.46127
1	1	0	1	0	0	0	4796	10	1.33695	10.0034	47.9774	47.9774	0	13.327	11	-1.12301	0.0167463	0.000000000000000E+000	1.45481e+08	0.000000000000000E+000	0.000000000000000E+000	13.327	13.327	0.0000000E+000	0.000000000000000E+000	0.013374	2.45996
1	1	0	1	0	0	0	4933	10	1.35935	10.0036	49.3479	49.3479	0	13.7077	11	-1.12561	0.0172549	0.000000000000000E+000	1.40118e+08	0.000000000000000E+000	0.000000000000000E+000	13.7077	13.7077	0.0000000E+000	0.000000000000000E+000	0.0135984	2.48496
1	1	0	1	0	0	0	5070	10	1.35847	10.0033	50.7184	50.7184	0	14.0884	11	-1.1261	0.0177663	0.000000000000000E+000	1.44372e+08	0.000000000000000E+000	0.000000000000000E+000	14.0884	14.0884	0.0000000E+000	0.000000000000000E+000	0.0135891	2.48457
1	1	0	1	0	0	0	5207	10	1.33573	10.0031	52.0889	52.0889	0	14.4691	11	-1.1273	0.0182765	0.000000000000000E+000	1.58533e+08	0.000000000000000E+000	0.000000000000000E+000	14.4691	14.4691	0.0000000E+000	0.000000000000000E+000	0.0133614	2.46303
1	1	0	1	0	0	0	5344	10	1.32687	10.0034	53.4594	53.4594	0	14.8498	11	-1.12829	0.0187849	0.000000000000000E+000	1.67215e+08	0.000000000000000E+000	0.000000000000000E+000	14.8498	14.8498	0.0000000E+000	0.000000000000000E+000	0.0132733	2.45516
1	1	0	1	0	0	0	5481	10	1.32363	10.0041	54.8299	54.8299	0	15.2305	11	-1.13058	0.0192939	0.000000000000000E+000	1.73259e+08	0.000000000000000E+000	0.000000000000000E+000	15.2305	15.2305	0.0000000E+000	0.000000000000000E+000	0.0132417	2.45421
1	1	0	1	0	0	0	5618	10	1.33699	10.0041	56.2004	56.2004	0	15.6112	11	-1.13026	0.0198025	0.000000000000000E+000	1.70393e+08	0.000000000000000E+000	0.000000000000000E+000	15.6112	15.6112	0.0000000E+000	0.000000000000000E+000	0.0133755	2.46726
1	1	0	1	0	0	0	5738.8	10	1.33875	10.0039	57.4089	57.4089	0	15.9469	11	-1.13943	0.0202507	0.000000000000000E+000	1.73135e+08	0.000000000000000E+000	0.000000000000000E+000	15.9469	15.9469	0.0000000E+000	0.000000000000000E+000	0.0133927	2.47818

File: 2024-6-21 NiOx on FTO_2_50mg_01_PEIS_C05.mpt
EC-Lab ASCII FILE
Nb header lines : 65

Potentio Electrochemical Impedance Spectroscopy

Run on channel : 5 (SN 39658)
User :
CE vs. WE compliance from -10 V to 10 V
Electrode connection : standard
Potential control : Ewe
Ewe ctrl range : min = -2.50 V, max = 2.50 V
Safety Limits :
	Do not start on E overload
Acquisition started on : 06/21/2024 11:53:45.401
Technique started on : 06/21/2024 11:53:47.106
Loaded Setting File :  NONE
Saved on :
	File : 2024-6-21 NiOx on FTO_2_50mg_01_PEIS_C05.mpr
	Directory : C:\Users\sfolkman\OneDrive - New Mexico State University\Folkman Group Folder\Scott\
	Host : 172.24.124.15
Device : VSP (SN 1910)
Address : USB
EC-Lab for windows v11.46 (software)
Internet server v11.40 (firmware)
Command interpretor v11.40 (firmware)
Electrode material :
Initial state :
Electrolyte :
Comments :
Current amplifier : VSPB-4A
Electrode surface area : 0.001 cm²
Characteristic mass : 0.001 g
Equivalent Weight : 0.000 g/eq.
Density : 0.000 g/cm3
Volume (V) : 0.001 cm³
Cycle Definition : Charge/Discharge alternance
Mode                Single sine
E (V)               0.0000
vs.                 Eoc
tE (h:m:s)          0:00:0.0000
record              0
dI                  0.000
unit dI             mA
dt (s)              0.000
fi                  200.000
unit fi             kHz
ff                  100.000
unit ff             mHz
Nd                  6
Points              per decade
spacing             Logarithmic
Va (mV)             10.0
pw                  0.10
Na                  2
corr                0
E range min (V)     -2.500
E range max (V)     2.500
I Range             Auto
Bandwidth           4
nc cycles           0
goto Ns'            0
nr cycles           0
inc. cycle          0

freq/Hz	Re(Z)/Ohm	-Im(Z)/Ohm	|Z|/Ohm	Phase(Z)/deg	time/s	<Ewe>/V	<I>/mA	Cs/µF	Cp/µF	cycle number	I Range	|Ewe|/V	|I|/A	Ns	(Q-Qo)/mA.h	Re(Y)/Ohm-1	Im(Y)/Ohm-1	|Y|/Ohm-1	Phase(Y)/deg	Re(C)/nF	Im(C)/nF	|C|/nF	Phase(C)/deg	Re(M)	Im(M)	|M|	Phase(M)/deg	Re(Permittivity)	Im(Permittivity)	|Permittivity|	Phase(Permittivity)/deg	Re(Resistivity)/Ohm.cm	Im(Resistivity)/Ohm.cm	|Resistivity|/Ohm.cm	Phase(Resistivity)/deg	Re(Conductivity)/mS/cm	Im(Conductivity)/mS/cm	|Conductivity|/mS/cm	Phase(Conductivity)/deg	Tan(Delta)	Loss Angle(Delta)/deg	dq/mA.h
199998	4.80852	12.2629	13.1719	-68.5888	1.70547	0.247438	-0.0136872	0.0648937	0.0562455	1	10	0.0102591	0.000778865	0	-4.75815e-06	0.0277149	0.0706795	0.0759191	68.5888	56.2455	22.055	60.4151	-21.4112	0.0000000E+000	0.0000000E+000	0.0000000E+000	21.4112	0.0000000E+000	0.0000000E+000	0.0000000E+000	-21.4112	0.0000000E+000	0.0000000E+000	0.0000000E+000	-68.5888	0.0000000E+000	0.0000000E+000	0.0000000E+000	68.5888	0.392121	68.5888	-4.75815e-06
91291.2	8.17798	8.06814	11.488	-44.6126	2.89549	0.247497	-0.0130823	0.216082	0.10658	1	10	0.0101242	0.000881283	0	-2.43244e-05	0.0619665	0.0611342	0.0870473	44.6126	106.58	108.031	151.756	-45.3874	0.0000000E+000	0.0000000E+000	0.0000000E+000	45.3874	0.0000000E+000	0.0000000E+000	0.0000000E+000	-45.3874	0.0000000E+000	0.0000000E+000	0.0000000E+000	-44.6126	0.0000000E+000	0.0000000E+000	0.0000000E+000	44.6126	1.01361	44.6126	-1.63287e-05
41669.8	11.1053	5.32045	12.314	-25.5987	3.78748	0.247527	-0.0134397	0.717879	0.134014	1	10	0.010667	0.000866253	0	-3.05323e-05	0.0732373	0.0350874	0.0812085	25.5987	134.014	279.725	310.171	-64.4013	0.0000000E+000	0.0000000E+000	0.0000000E+000	64.4013	0.0000000E+000	0.0000000E+000	0.0000000E+000	-64.4013	0.0000000E+000	0.0000000E+000	0.0000000E+000	-25.5987	0.0000000E+000	0.0000000E+000	0.0000000E+000	25.5987	2.08728	25.5987	-9.28304e-06
19020.9	12.1356	4.21286	12.846	-19.1444	4.67948	0.247528	-0.0129278	1.98615	0.213613	1	10	0.0104816	0.00081594	0	-3.72474e-05	0.0735399	0.0255293	0.0778451	19.1444	213.613	615.335	651.358	-70.8556	0.0000000E+000	0.0000000E+000	0.0000000E+000	70.8556	0.0000000E+000	0.0000000E+000	0.0000000E+000	-70.8556	0.0000000E+000	0.0000000E+000	0.0000000E+000	-19.1444	0.0000000E+000	0.0000000E+000	0.0000000E+000	19.1444	2.8806	19.1444	1.9061e-08
8683.37	13.2892	4.5865	14.0584	-19.041	5.59998	0.247572	-0.0119693	3.99623	0.425342	1	10	0.0101343	0.000720872	0	-3.65274e-05	0.0672397	0.0232064	0.0711316	19.041	425.342	1232.42	1303.75	-70.959	0.0000000E+000	0.0000000E+000	0.0000000E+000	70.959	0.0000000E+000	0.0000000E+000	0.0000000E+000	-70.959	0.0000000E+000	0.0000000E+000	0.0000000E+000	-19.041	0.0000000E+000	0.0000000E+000	0.0000000E+000	19.041	2.89747	19.041	4.44557e-06
3961.2	14.0703	6.40462	15.4594	-24.4744	6.71293	0.247519	-0.0135178	6.27336	1.07672	1	10	0.0105247	0.000680799	0	-4.09949e-05	0.0588734	0.0267984	0.0646856	24.4744	1076.72	2365.44	2598.97	-65.5256	0.0000000E+000	0.0000000E+000	0.0000000E+000	65.5256	0.0000000E+000	0.0000000E+000	0.0000000E+000	-65.5256	0.0000000E+000	0.0000000E+000	0.0000000E+000	-24.4744	0.0000000E+000	0.0000000E+000	0.0000000E+000	24.4744	2.1969	24.4744	-4.85545e-07
1808.26	14.7413	11.8423	18.9088	-38.7763	7.66093	0.247522	-0.0137263	7.43231	2.91516	1	10	0.0106954	0.00056563	0	-4.71024e-05	0.0412293	0.0331211	0.0528853	38.7763	2915.16	3628.81	4654.72	-51.2237	0.0000000E+000	0.0000000E+000	0.0000000E+000	51.2237	0.0000000E+000	0.0000000E+000	0.0000000E+000	-51.2237	0.0000000E+000	0.0000000E+000	0.0000000E+000	-38.7763	0.0000000E+000	0.0000000E+000	0.0000000E+000	38.7763	1.2448	38.7763	-3.71555e-06
825.264	15.7286	24.0848	28.7658	-56.8534	8.60768	0.247542	-0.0133838	8.00725	5.61331	1	10	0.0105136	0.000365489	0	-5.11982e-05	0.0190081	0.0291066	0.0347636	56.8534	5613.31	3665.78	6704.27	-33.1466	0.0000000E+000	0.0000000E+000	0.0000000E+000	33.1466	0.0000000E+000	0.0000000E+000	0.0000000E+000	-33.1466	0.0000000E+000	0.0000000E+000	0.0000000E+000	-56.8534	0.0000000E+000	0.0000000E+000	0.0000000E+000	56.8534	0.653051	56.8534	2.82443e-08
377.051	18.7844	50.2882	53.682	-69.5175	10.0527	0.247565	-0.00169492	8.39371	7.36594	1	11	0.00983821	0.000183268	0	-5.08041e-05	0.0065184	0.0174505	0.0186282	69.5175	7365.94	2751.44	7863.05	-20.4825	0.0000000E+000	0.0000000E+000	0.0000000E+000	20.4825	0.0000000E+000	0.0000000E+000	0.0000000E+000	-20.4825	0.0000000E+000	0.0000000E+000	0.0000000E+000	-69.5175	0.0000000E+000	0.0000000E+000	0.0000000E+000	69.5175	0.373536	69.5175	7.32049e-07
172.037	25.7489	104.986	108.098	-76.2196	10.9954	0.247523	-0.00183363	8.81185	8.31187	1	11	0.00963198	8.91046e-05	0	-5.16763e-05	0.00220357	0.00898463	0.00925091	76.2196	8311.87	2038.57	8558.21	-13.7804	0.0000000E+000	0.0000000E+000	0.0000000E+000	13.7804	0.0000000E+000	0.0000000E+000	0.0000000E+000	-13.7804	0.0000000E+000	0.0000000E+000	0.0000000E+000	-76.2196	0.0000000E+000	0.0000000E+000	0.0000000E+000	76.2196	0.24526	76.2196	-7.30726e-07
78.5176	44.1983	213.011	217.548	-78.2779	12.2135	0.247541	-7.87602e-05	9.51591	9.12313	1	12	0.00969733	4.45755e-05	0	-5.15857e-05	0.000933885	0.00450081	0.00459668	78.2779	9123.13	1892.98	9317.45	-11.7221	0.0000000E+000	0.0000000E+000	0.0000000E+000	11.7221	0.0000000E+000	0.0000000E+000	0.0000000E+000	-11.7221	0.0000000E+000	0.0000000E+000	0.0000000E+000	-78.2779	0.0000000E+000	0.0000000E+000	0.0000000E+000	78.2779	0.207493	78.2779	4.01323e-07
[...]
16.367	173.523	866.024	883.237	-78.6698	14.092	0.247519	-0.000161874	11.2285	10.7951	1	12	0.00951052	1.07678e-05	0	-5.143e-05	0.000222435	0.00111013	0.0011322	78.6698	10795.1	2162.99	11009.7	-11.3302	0.0000000E+000	0.0000000E+000	0.0000000E+000	11.3302	0.0000000E+000	0.0000000E+000	0.0000000E+000	-11.3302	0.0000000E+000	0.0000000E+000	0.0000000E+000	-78.6698	0.0000000E+000	0.0000000E+000	0.0000000E+000	78.6698	0.200368	78.6698	-9.51762e-08
7.46893	338.44	1741.44	1774.02	-79.0019	15.1116	0.247559	3.16832e-05	12.2364	11.7911	1	13	0.00954111	5.37825e-06	0	-5.14477e-05	0.000107539	0.000553339	0.000563692	79.0019	11791.1	2291.54	12011.7	-10.9981	0.0000000E+000	0.0000000E+000	0.0000000E+000	10.9981	0.0000000E+000	0.0000000E+000	0.0000000E+000	-10.9981	0.0000000E+000	0.0000000E+000	0.0000000E+000	-79.0019	0.0000000E+000	0.0000000E+000	0.0000000E+000	79.0019	0.194346	79.0019	-3.84601e-08
3.4086	626.375	3355.81	3413.77	-79.4272	16.2542	0.247555	-5.37808e-05	13.9138	13.4454	1	13	0.00953768	2.79388e-06	0	-5.14627e-05	5.37484e-05	0.000287958	0.000292931	79.4272	13445.4	2509.63	13677.6	-10.5728	0.0000000E+000	0.0000000E+000	0.0000000E+000	10.5728	0.0000000E+000	0.0000000E+000	0.0000000E+000	-10.5728	0.0000000E+000	0.0000000E+000	0.0000000E+000	-79.4272	0.0000000E+000	0.0000000E+000	0.0000000E+000	79.4272	0.186654	79.4272	-5.77941e-08
1.55627	1430.85	6753.4	6903.31	-78.0375	26.1876	0.247563	-7.35429e-05	15.143	14.4924	1	13	0.0104153	1.50875e-06	0	-5.14337e-05	3.00248e-05	0.000141712	0.000144858	78.0375	14492.4	3070.54	14814.1	-11.9625	0.0000000E+000	0.0000000E+000	0.0000000E+000	11.9625	0.0000000E+000	0.0000000E+000	0.0000000E+000	-11.9625	0.0000000E+000	0.0000000E+000	0.0000000E+000	-78.0375	0.0000000E+000	0.0000000E+000	0.0000000E+000	78.0375	0.211872	78.0375	1.12252e-07
0.710357	2792.14	13607.8	13891.3	-78.4046	57.2511	0.247556	-2.44017e-05	16.4648	15.7996	1	13	0.010405	7.49032e-07	0	-5.20958e-05	1.44695e-05	7.05185e-05	7.19877e-05	78.4046	15799.6	3241.89	16128.8	-11.5954	0.0000000E+000	0.0000000E+000	0.0000000E+000	11.5954	0.0000000E+000	0.0000000E+000	0.0000000E+000	-11.5954	0.0000000E+000	0.0000000E+000	0.0000000E+000	-78.4046	0.0000000E+000	0.0000000E+000	0.0000000E+000	78.4046	0.205188	78.4046	-3.01487e-07
0.324439	4973.16	27143.9	27595.7	-79.6177	122.163	0.247554	7.03698e-05	18.0724	17.4854	1	13	0.0104038	3.77007e-07	0	-5.29483e-05	6.53055e-06	3.56442e-05	3.62375e-05	79.6177	17485.4	3203.59	17776.5	-10.3823	0.0000000E+000	0.0000000E+000	0.0000000E+000	10.3823	0.0000000E+000	0.0000000E+000	0.0000000E+000	-10.3823	0.0000000E+000	0.0000000E+000	0.0000000E+000	-79.6177	0.0000000E+000	0.0000000E+000	0.0000000E+000	79.6177	0.183215	79.6177	-6.34057e-07
0.147897	14448.4	59167.6	60906.2	-76.2772	261.823	0.247562	-8.13033e-05	18.1877	17.1642	1	13	0.0104094	1.70909e-07	0	-5.51797e-05	3.89491e-06	1.595e-05	1.64187e-05	76.2772	17164.2	4191.4	17668.5	-13.7228	0.0000000E+000	0.0000000E+000	0.0000000E+000	13.7228	0.0000000E+000	0.0000000E+000	0.0000000E+000	-13.7228	0.0000000E+000	0.0000000E+000	0.0000000E+000	-76.2772	0.0000000E+000	0.0000000E+000	0.0000000E+000	76.2772	0.244195	76.2772	-1.59687e-06
0.0999041	20142.1	80557.6	83037.5	-75.962	384.27	0.247554	-8.89528e-05	19.7756	18.6121	1	13	0.0104014	1.25261e-07	0	-5.76327e-05	2.92116e-06	1.16831e-05	1.20428e-05	75.962	18612.1	4653.64	19185	-14.038	0.0000000E+000	0.0000000E+000	0.0000000E+000	14.038	0.0000000E+000	0.0000000E+000	0.0000000E+000	-14.038	0.0000000E+000	0.0000000E+000	0.0000000E+000	-75.962	0.0000000E+000	0.0000000E+000	0.0000000E+000	75.962	0.250033	75.962	-2.45301e-06