Folder: EC-Lab-Processing/Lares Oxides (part 5)

File: 2024-6-20 Ni65Co32Fe3Ox on FTO_1_00mg_01_PEIS_C05.mpt
EC-Lab ASCII FILE
Nb header lines : 65

Potentio Electrochemical Impedance Spectroscopy

Run on channel : 5 (SN 39658)
User :
CE vs. WE compliance from -10 V to 10 V
Electrode connection : standard
Potential control : Ewe
Ewe ctrl range : min = -2.50 V, max = 2.50 V
Safety Limits :
	Do not start on E overload
Acquisition started on : 06/20/2024 08:28:43.483
Technique started on : 06/20/2024 08:28:44.979
Loaded Setting File :  NONE
Saved on :
	File : 2024-6-20 Ni65Co32Fe3Ox on FTO_1_00mg_01_PEIS_C05.mpr
	Directory : C:\Users\sfolkman\OneDrive - New Mexico State University\Folkman Group Folder\Scott\
	Host : 172.24.124.15
Device : VSP (SN 1910)
Address : USB
EC-Lab for windows v11.46 (software)
Internet server v11.40 (firmware)
Command interpretor v11.40 (firmware)
Electrode material :
Initial state :
Electrolyte :
Comments :
Current amplifier : VSPB-4A
Electrode surface area : 0.001 cm²
Characteristic mass : 0.001 g
Equivalent Weight : 0.000 g/eq.
Density : 0.000 g/cm3
Volume (V) : 0.001 cm³
Cycle Definition : Charge/Discharge alternance
Mode                Single sine
E (V)               0.0000
vs.                 Eoc
tE (h:m:s)          0:00:0.0000
record              0
dI                  0.000
unit dI             mA
dt (s)              0.000
fi                  200.000
unit fi             kHz
ff                  100.000
unit ff             mHz
Nd                  6
Points              per decade
spacing             Logarithmic
Va (mV)             10.0
pw                  0.10
Na                  2
corr                0
E range min (V)     -2.500
E range max (V)     2.500
I Range             Auto
Bandwidth           4
nc cycles           0
goto Ns'            0
nr cycles           0
inc. cycle          0

freq/Hz	Re(Z)/Ohm	-Im(Z)/Ohm	|Z|/Ohm	Phase(Z)/deg	time/s	<Ewe>/V	<I>/mA	Cs/µF	Cp/µF	cycle number	I Range	|Ewe|/V	|I|/A	Ns	(Q-Qo)/mA.h	Re(Y)/Ohm-1	Im(Y)/Ohm-1	|Y|/Ohm-1	Phase(Y)/deg	Re(C)/nF	Im(C)/nF	|C|/nF	Phase(C)/deg	Re(M)	Im(M)	|M|	Phase(M)/deg	Re(Permittivity)	Im(Permittivity)	|Permittivity|	Phase(Permittivity)/deg	Re(Resistivity)/Ohm.cm	Im(Resistivity)/Ohm.cm	|Resistivity|/Ohm.cm	Phase(Resistivity)/deg	Re(Conductivity)/mS/cm	Im(Conductivity)/mS/cm	|Conductivity|/mS/cm	Phase(Conductivity)/deg	Tan(Delta)	Loss Angle(Delta)/deg	dq/mA.h
199998	8.546	16.5955	18.6667	-62.7534	1.49649	0.032708	-0.0102365	0.0479517	0.037901	1	10	0.00984018	0.000527153	0	-3.6769e-06	0.0245262	0.0476274	0.0535715	62.7534	37.901	19.5175	42.6312	-27.2466	0.0000000E+000	0.0000000E+000	0.0000000E+000	27.2466	0.0000000E+000	0.0000000E+000	0.0000000E+000	-27.2466	0.0000000E+000	0.0000000E+000	0.0000000E+000	-62.7534	0.0000000E+000	0.0000000E+000	0.0000000E+000	62.7534	0.514959	62.7534	-3.6769e-06
91291.2	18.2272	12.9123	22.3374	-35.3141	2.68648	0.0328024	-0.0108526	0.135016	0.045116	1	10	0.0102987	0.000461053	0	-1.24078e-05	0.0365304	0.0258785	0.044768	35.3141	45.116	63.6863	78.0474	-54.6859	0.0000000E+000	0.0000000E+000	0.0000000E+000	54.6859	0.0000000E+000	0.0000000E+000	0.0000000E+000	-54.6859	0.0000000E+000	0.0000000E+000	0.0000000E+000	-35.3141	0.0000000E+000	0.0000000E+000	0.0000000E+000	35.3141	1.41161	35.3141	-5.31806e-06
41669.8	20.2841	4.19958	20.7143	-11.6972	3.57849	0.032818	-0.00988477	0.90948	0.0373824	1	10	0.0104398	0.000503993	0	-6.16333e-06	0.0472734	0.0097874	0.0482759	11.6972	37.3824	180.558	184.387	-78.3028	0.0000000E+000	0.0000000E+000	0.0000000E+000	78.3028	0.0000000E+000	0.0000000E+000	0.0000000E+000	-78.3028	0.0000000E+000	0.0000000E+000	0.0000000E+000	-11.6972	0.0000000E+000	0.0000000E+000	0.0000000E+000	11.6972	4.83002	11.6972	1.89423e-06
19020.9	19.3629	2.36777	19.5071	-6.97172	4.47048	0.0327745	-0.0119302	3.53386	0.0520643	1	10	0.0101896	0.000522353	0	3.21968e-07	0.0508842	0.00622231	0.0512633	6.97172	52.0642	425.767	428.938	-83.0283	0.0000000E+000	0.0000000E+000	0.0000000E+000	83.0283	0.0000000E+000	0.0000000E+000	0.0000000E+000	-83.0283	0.0000000E+000	0.0000000E+000	0.0000000E+000	-6.97172	0.0000000E+000	0.0000000E+000	0.0000000E+000	6.97172	8.17771	6.97172	4.47557e-06
8683.37	19.3672	2.43135	19.5192	-7.15546	5.39	0.0328113	-0.00992385	7.5385	0.116965	1	10	0.010153	0.000520157	0	-2.65868e-06	0.0508326	0.00638151	0.0512316	7.15546	116.965	931.697	939.01	-82.8445	0.0000000E+000	0.0000000E+000	0.0000000E+000	82.8445	0.0000000E+000	0.0000000E+000	0.0000000E+000	-82.8445	0.0000000E+000	0.0000000E+000	0.0000000E+000	-7.15546	0.0000000E+000	0.0000000E+000	0.0000000E+000	7.15546	7.96561	7.15546	-5.96191e-06
3961.2	20.1998	3.78848	20.552	-10.6224	6.50294	0.0328618	-0.0122615	10.6054	0.360372	1	10	0.0104268	0.00050734	0	-2.76466e-06	0.0478232	0.00896927	0.0486571	10.6224	360.371	1921.47	1954.97	-79.3776	0.0000000E+000	0.0000000E+000	0.0000000E+000	79.3776	0.0000000E+000	0.0000000E+000	0.0000000E+000	-79.3776	0.0000000E+000	0.0000000E+000	0.0000000E+000	-10.6224	0.0000000E+000	0.0000000E+000	0.0000000E+000	10.6224	5.3319	10.6224	-9.24239e-07
1808.26	21.3846	6.75366	22.4257	-17.5271	7.45097	0.0328515	-0.0123323	13.0322	1.18197	1	10	0.0107732	0.000480395	0	-3.1545e-06	0.0425215	0.0134291	0.0445917	17.5271	1181.97	3742.54	3924.75	-72.4729	0.0000000E+000	0.0000000E+000	0.0000000E+000	72.4729	0.0000000E+000	0.0000000E+000	0.0000000E+000	-72.4729	0.0000000E+000	0.0000000E+000	0.0000000E+000	-17.5271	0.0000000E+000	0.0000000E+000	0.0000000E+000	17.5271	3.16637	17.5271	8.89707e-07
825.264	23.4645	11.8123	26.27	-26.7213	8.39769	0.0328743	-0.0126468	16.3265	3.30097	1	10	0.010692	0.000407005	0	-6.3666e-06	0.0340009	0.0171165	0.0380662	26.7213	3300.97	6557.2	7341.2	-63.2787	0.0000000E+000	0.0000000E+000	0.0000000E+000	63.2787	0.0000000E+000	0.0000000E+000	0.0000000E+000	-63.2787	0.0000000E+000	0.0000000E+000	0.0000000E+000	-26.7213	0.0000000E+000	0.0000000E+000	0.0000000E+000	26.7213	1.98644	26.7213	-3.36043e-06
377.051	27.4366	21.3753	34.7803	-37.9215	9.84269	0.0328117	-0.00174184	19.7473	7.45874	1	11	0.00996997	0.000286656	0	-1.02226e-05	0.0226811	0.0176704	0.0287519	37.9215	7458.74	9573.77	12136.3	-52.0785	0.0000000E+000	0.0000000E+000	0.0000000E+000	52.0785	0.0000000E+000	0.0000000E+000	0.0000000E+000	-52.0785	0.0000000E+000	0.0000000E+000	0.0000000E+000	-37.9215	0.0000000E+000	0.0000000E+000	0.0000000E+000	37.9215	1.28356	37.9215	-1.52904e-06
172.037	33.9637	38.7945	51.5611	-48.7986	10.7854	0.0328385	-0.00169027	23.8467	13.4997	1	11	0.0097926	0.000189922	0	-1.02322e-05	0.0127753	0.0145924	0.0193945	48.7986	13499.7	11818.7	17942.2	-41.2014	0.0000000E+000	0.0000000E+000	0.0000000E+000	41.2014	0.0000000E+000	0.0000000E+000	0.0000000E+000	-41.2014	0.0000000E+000	0.0000000E+000	0.0000000E+000	-48.7986	0.0000000E+000	0.0000000E+000	0.0000000E+000	48.7986	0.875476	48.7986	6.77147e-07
78.5176	45.8857	69.4699	83.2561	-56.5548	11.7375	0.0328655	-0.00191219	29.178	20.3151	1	11	0.00983165	0.000118089	0	-1.02565e-05	0.00661982	0.0100222	0.0120111	56.5548	20315.1	13418.3	24346.5	-33.4452	0.0000000E+000	0.0000000E+000	0.0000000E+000	33.4452	0.0000000E+000	0.0000000E+000	0.0000000E+000	-33.4452	0.0000000E+000	0.0000000E+000	0.0000000E+000	-56.5548	0.0000000E+000	0.0000000E+000	0.0000000E+000	56.5548	0.660512	56.5548	-5.52725e-07
[...]
16.367	94.7488	249.009	266.426	-69.168	13.8851	0.0327909	-0.000261683	39.0515	34.1125	1	12	0.00962159	3.61136e-05	0	-1.21764e-05	0.00133482	0.00350802	0.00375339	69.168	34112.5	12980	36498.6	-20.832	0.0000000E+000	0.0000000E+000	0.0000000E+000	20.832	0.0000000E+000	0.0000000E+000	0.0000000E+000	-20.832	0.0000000E+000	0.0000000E+000	0.0000000E+000	-69.168	0.0000000E+000	0.0000000E+000	0.0000000E+000	69.168	0.380504	69.168	-2.44485e-07
7.46893	158.913	475.867	501.7	-71.5336	14.6596	0.03278	-0.000175759	44.7791	40.2865	1	12	0.00965016	1.92349e-05	0	-1.20003e-05	0.000631352	0.00189059	0.00199322	71.5336	40286.4	13453.4	42473.4	-18.4664	0.0000000E+000	0.0000000E+000	0.0000000E+000	18.4664	0.0000000E+000	0.0000000E+000	0.0000000E+000	-18.4664	0.0000000E+000	0.0000000E+000	0.0000000E+000	-71.5336	0.0000000E+000	0.0000000E+000	0.0000000E+000	71.5336	0.333944	71.5336	4.28287e-07
3.4086	274.694	848.879	892.217	-72.0686	16.1572	0.0327807	-9.32895e-05	55.0046	49.7908	1	13	0.00963806	1.08024e-05	0	-1.23318e-05	0.00034507	0.00106636	0.0011208	72.0686	49790.8	16112.1	52332.8	-17.9314	0.0000000E+000	0.0000000E+000	0.0000000E+000	17.9314	0.0000000E+000	0.0000000E+000	0.0000000E+000	-17.9314	0.0000000E+000	0.0000000E+000	0.0000000E+000	-72.0686	0.0000000E+000	0.0000000E+000	0.0000000E+000	72.0686	0.323596	72.0686	1.35284e-07
1.55627	559.571	1845	1927.99	-73.128	18.5157	0.0328495	-0.000359045	55.429	50.7599	1	13	0.00969342	5.02773e-06	0	-1.24809e-05	0.000150538	0.000496348	0.000518675	73.128	50759.9	15395	53043.1	-16.872	0.0000000E+000	0.0000000E+000	0.0000000E+000	16.872	0.0000000E+000	0.0000000E+000	0.0000000E+000	-16.872	0.0000000E+000	0.0000000E+000	0.0000000E+000	-73.128	0.0000000E+000	0.0000000E+000	0.0000000E+000	73.128	0.30329	73.128	-3.77363e-07
0.710357	1142.84	3365.07	3553.84	-71.2416	48.7844	0.032848	0.000227739	66.5809	59.6956	1	13	0.0104041	2.92758e-06	0	-1.33372e-05	9.04877e-05	0.00026644	0.000281386	71.2416	59695.6	20273.7	63044.4	-18.7584	0.0000000E+000	0.0000000E+000	0.0000000E+000	18.7584	0.0000000E+000	0.0000000E+000	0.0000000E+000	-18.7584	0.0000000E+000	0.0000000E+000	0.0000000E+000	-71.2416	0.0000000E+000	0.0000000E+000	0.0000000E+000	71.2416	0.339618	71.2416	-4.98177e-07
0.324439	2049.97	6507.24	6822.51	-72.514	113.14	0.0328495	-0.00012297	75.3858	68.5797	1	13	0.0104033	1.52486e-06	0	-1.37069e-05	4.40413e-05	0.000139801	0.000146574	72.514	68579.7	21604.6	71902.3	-17.486	0.0000000E+000	0.0000000E+000	0.0000000E+000	17.486	0.0000000E+000	0.0000000E+000	0.0000000E+000	-17.486	0.0000000E+000	0.0000000E+000	0.0000000E+000	-72.514	0.0000000E+000	0.0000000E+000	0.0000000E+000	72.514	0.31503	72.514	-8.84378e-07
0.147897	4554.69	11879	12722.2	-69.022	252.372	0.03285	-0.000104687	90.5904	78.9793	1	13	0.0104037	8.17756e-07	0	-1.68652e-05	2.81405e-05	7.33925e-05	7.86025e-05	69.022	78979.3	30282.6	84585.8	-20.978	0.0000000E+000	0.0000000E+000	0.0000000E+000	20.978	0.0000000E+000	0.0000000E+000	0.0000000E+000	-20.978	0.0000000E+000	0.0000000E+000	0.0000000E+000	-69.022	0.0000000E+000	0.0000000E+000	0.0000000E+000	69.022	0.383424	69.022	-1.75501e-06
0.0999041	8865.47	20266.8	22121.1	-66.3736	283.52	0.032845	-8.26545e-05	78.6051	65.9798	1	14	0.0104081	4.70508e-07	0	-1.78472e-05	1.81172e-05	4.14166e-05	4.52058e-05	66.3736	65979.8	28862	72016.3	-23.6264	0.0000000E+000	0.0000000E+000	0.0000000E+000	23.6264	0.0000000E+000	0.0000000E+000	0.0000000E+000	-23.6264	0.0000000E+000	0.0000000E+000	0.0000000E+000	-66.3736	0.0000000E+000	0.0000000E+000	0.0000000E+000	66.3736	0.437437	66.3736	-9.82082e-07

File: 2024-6-20 Ni65Co32Fe3Ox on FTO_1_00mg_02_CV_C05.mpt
EC-Lab ASCII FILE
Nb header lines : 59

Cyclic Voltammetry

Run on channel : 5 (SN 39658)
User :
CE vs. WE compliance from -10 V to 10 V
Electrode connection : standard
Potential control : Ewe
Ewe ctrl range : min = -2.50 V, max = 2.50 V
Safety Limits :
	Do not start on E overload
Acquisition started on : 06/20/2024 08:28:43.483
Technique started on : 06/20/2024 08:33:27.159
Loaded Setting File :  NONE
Saved on :
	File : 2024-6-20 Ni65Co32Fe3Ox on FTO_1_00mg_02_CV_C05.mpr
	Directory : C:\Users\sfolkman\OneDrive - New Mexico State University\Folkman Group Folder\Scott\
	Host : 172.24.124.15
Device : VSP (SN 1910)
Address : USB
EC-Lab for windows v11.46 (software)
Internet server v11.40 (firmware)
Command interpretor v11.40 (firmware)
Electrode material :
Initial state :
Electrolyte :
Comments :
Current amplifier : VSPB-4A
Electrode surface area : 0.001 cm²
Characteristic mass : 0.001 g
Equivalent Weight : 0.000 g/eq.
Density : 0.000 g/cm3
Volume (V) : 0.001 cm³
Cycle Definition : Charge/Discharge alternance
Ei (V)              0.000
vs.                 Eoc
dE/dt               10.000
dE/dt unit          mV/s
E1 (V)              1.000
vs.                 Ref
Step percent        50
N                   10
E range min (V)     -2.500
E range max (V)     2.500
I Range             Auto
I Range min         Unset
I Range max         Unset
I Range init        Unset
Bandwidth           4
E2 (V)              0.000
vs.                 Ref
nc cycles           2
Reverse Scan        1
Ef (V)              0.000
vs.                 Eoc

mode	ox/red	error	control changes	counter inc.	time/s	control/V	Ewe/V	<I>/mA	cycle number	(Q-Qo)/C	I Range	P/W
2	1	0	0	0	283.676	0.03263	0.0359297	0.0663503	1	0.0000000E+000	13	2.38394e-06
2	0	0	0	0	287.962	0.0754933	0.0753566	0.00110521	1	4.326e-06	12	8.32846e-08
2	0	0	1	0	292.263	0.118507	0.119331	0.00317615	1	1.23511e-05	12	3.79012e-07
2	0	0	1	0	296.565	0.16152	0.161487	0.000760835	1	2.46492e-05	12	1.22865e-07
2	1	0	0	0	300.866	0.204533	0.206367	0.00293786	1	4.26171e-05	12	6.06278e-07
2	1	0	1	0	305.167	0.247547	0.246905	0.00191793	1	6.84809e-05	12	4.73545e-07
2	1	0	1	0	309.469	0.290559	0.290411	0.00648437	1	0.000106197	12	1.88313e-06
2	1	0	0	0	313.77	0.333573	0.334594	0.0129136	1	0.000162467	12	4.32081e-06
2	1	0	1	0	318.071	0.376587	0.37671	0.0186632	1	0.000244932	12	7.03061e-06
2	1	0	1	0	322.373	0.419599	0.419724	0.0275256	1	0.00036115	12	1.15532e-05
2	1	0	0	0	326.704	0.462913	0.463368	0.03763	1	0.000526829	11	1.74366e-05
2	1	0	1	0	331.005	0.505927	0.507158	0.0652147	1	0.000771572	11	3.30742e-05
2	1	0	0	0	335.307	0.54894	0.549552	0.108795	1	0.00116309	11	5.97886e-05
2	1	0	0	0	339.608	0.591953	0.59271	0.19533	1	0.00180877	11	0.000115774
2	1	0	1	0	343.909	0.634967	0.635428	0.39113	1	0.00297851	11	0.000248535
2	1	0	0	0	348.211	0.67798	0.679853	0.973452	1	0.00570022	11	0.000661805
2	1	0	0	0	352.512	0.720993	0.721592	2.10429	1	0.0121765	11	0.00151843
2	1	0	1	0	356.813	0.764007	0.764023	3.601	1	0.0243992	11	0.00275125
2	1	0	0	0	361.115	0.80702	0.807107	5.29429	1	0.0434947	11	0.00427306
2	1	0	0	0	365.416	0.850033	0.850756	7.0878	1	0.0700795	11	0.00602999
2	1	0	1	0	369.717	0.893047	0.893313	8.94319	1	0.104522	11	0.00798906
2	1	0	0	0	374.049	0.93636	0.936734	10.8564	1	0.147397	10	0.0101696
2	1	0	0	0	378.35	0.979373	0.979878	12.7811	1	0.198225	10	0.0125239
2	1	0	1	0	382.472	0.979473	0.97969	12.8027	1	0.252862	10	0.0125427
2	1	0	1	0	386.773	0.93646	0.93696	10.9349	1	0.303889	10	0.0102456
2	1	0	0	0	391.074	0.893447	0.893409	9.11135	1	0.346957	10	0.00814016
2	1	0	1	0	395.376	0.850433	0.850441	7.33633	1	0.382283	10	0.00623912
2	1	0	1	0	399.677	0.80742	0.807605	5.64295	1	0.410167	10	0.00455727
2	1	0	0	0	404.008	0.764107	0.764935	4.05333	1	0.431123	11	0.00310053
2	1	0	1	0	408.31	0.721093	0.722465	2.61293	1	0.445414	11	0.00188775
2	1	0	1	0	412.611	0.67808	0.679294	1.41061	1	0.453967	11	0.000958222
2	1	0	0	0	416.912	0.635067	0.63647	0.553014	1	0.45801	11	0.000351977
2	1	0	1	0	421.214	0.592053	0.593093	0.115675	1	0.459294	11	6.86063e-05
2	1	0	1	0	425.515	0.54904	0.549757	-0.0408844	1	0.459406	11	-2.24765e-05
2	0	0	0	0	429.816	0.506027	0.505953	-0.0813105	1	0.459127	11	-4.11393e-05
2	0	0	1	0	434.118	0.463013	0.463084	-0.0902507	1	0.45873	11	-4.17937e-05
2	0	0	1	0	438.419	0.42	0.421141	-0.0932708	1	0.458322	11	-3.92801e-05
2	1	0	0	0	442.72	0.376987	0.377987	-0.0874521	1	0.457946	11	-3.30557e-05
2	1	0	1	0	447.022	0.333973	0.334823	-0.0716384	1	0.45762	11	-2.39862e-05
2	0	0	1	0	451.323	0.29096	0.291289	-0.0575806	1	0.457343	11	-1.67726e-05
2	0	0	0	0	455.624	0.247947	0.24879	-0.049838	1	0.457105	11	-1.23992e-05
2	0	0	1	0	459.956	0.204633	0.20493	-0.0416416	1	0.456901	12	-8.5336e-06
2	1	0	1	0	464.257	0.16162	0.162395	-0.0403867	1	0.456722	12	-6.55859e-06
2	1	0	0	0	468.558	0.118607	0.119341	-0.0363019	1	0.456561	12	-4.33231e-06
2	0	0	1	0	472.86	0.0755933	0.0757205	-0.0314833	1	0.456413	12	-2.38393e-06
2	0	0	1	0	477.161	0.03258	0.0320798	-0.0306208	1	0.456275	12	-9.82308e-07
2	0	0	1	1	481.373	0.00957285	0.0112368	-0.0239237	1	0.456152	12	-2.68825e-07
2	1	0	1	1	485.514	0.0509857	0.0516206	-0.0195782	2	0.45606	12	-1.01064e-06
2	0	0	0	1	489.816	0.093999	0.0943937	-0.0134244	2	0.455985	12	-1.26718e-06
2	0	0	1	1	494.117	0.137012	0.136905	-0.0123114	2	0.455926	12	-1.68549e-06
2	1	0	1	1	498.418	0.180026	0.179211	-0.0117204	2	0.45588	12	-2.10042e-06
2	1	0	0	1	502.72	0.223039	0.223292	-0.00714859	2	0.455848	12	-1.59622e-06
2	0	0	1	1	507.021	0.266052	0.266356	0.000219479	2	0.45583	12	5.84594e-08
2	0	0	1	1	511.322	0.309066	0.308556	0.00579232	2	0.455832	12	1.78725e-06
2	0	0	0	1	515.624	0.352079	0.352012	0.00634346	2	0.455856	12	2.23298e-06
2	1	0	1	1	519.925	0.395092	0.39575	0.0101136	2	0.455909	12	4.00247e-06
2	1	0	1	1	524.226	0.438106	0.439521	0.0278231	2	0.456005	12	1.22288e-05
2	0	0	0	1	528.528	0.481119	0.481267	0.0624051	2	0.456185	12	3.00335e-05
2	0	0	1	1	532.859	0.524432	0.524194	0.112667	2	0.456528	11	5.90594e-05
2	0	0	1	1	537.16	0.567446	0.568139	0.187432	2	0.457138	11	0.000106487
2	1	0	0	1	541.462	0.610459	0.611587	0.315437	2	0.458203	11	0.000192917
2	1	0	1	1	545.763	0.653472	0.65378	0.670388	2	0.460224	11	0.000438286
2	1	0	1	1	550.064	0.696486	0.69821	1.50286	2	0.46471	11	0.00104931
2	1	0	0	1	554.366	0.739499	0.74068	2.75113	2	0.473718	11	0.00203771
2	1	0	1	1	558.667	0.782512	0.782255	4.25439	2	0.488728	11	0.00332802
2	1	0	1	1	562.968	0.825526	0.826415	5.91767	2	0.510602	11	0.00489045
2	1	0	0	1	567.27	0.868539	0.868845	7.68666	2	0.539853	11	0.00667852
2	1	0	1	1	571.571	0.911552	0.911767	9.51215	2	0.576808	11	0.00867287
2	1	0	1	1	575.902	0.954865	0.956696	11.3775	2	0.622028	10	0.0108848
2	1	0	0	1	580.204	0.997879	0.997643	13.2564	2	0.675005	10	0.0132252
2	1	0	1	1	584.375	0.960467	0.961211	11.6494	2	0.727308	10	0.0111975
2	1	0	1	1	588.677	0.917454	0.918521	9.84571	2	0.773479	10	0.00904349
2	1	0	0	1	592.978	0.874441	0.876002	8.07516	2	0.811965	10	0.00707386
2	1	0	1	1	597.279	0.831427	0.832194	6.37377	2	0.843005	10	0.00530421
2	1	0	1	1	601.581	0.788414	0.788889	4.76609	2	0.866946	10	0.00375991
2	1	0	0	1	605.912	0.745101	0.747264	3.28082	2	0.884357	11	0.00245164
2	1	0	1	1	610.213	0.702087	0.702317	1.98183	2	0.895594	11	0.00139188
2	1	0	1	1	614.515	0.659074	0.659399	0.943746	2	0.901733	11	0.000622305
2	1	0	0	1	618.816	0.616061	0.616998	0.286714	2	0.904212	11	0.000176902
[...]
2	0	0	0	1	670.462	0.0996007	0.100153	-0.0518886	2	0.900452	12	-5.19682e-06
2	0	0	1	1	674.763	0.0565874	0.0558686	-0.0483732	2	0.900246	12	-2.70254e-06
2	0	0	1	1	679.065	0.0135734	0.013743	-0.0434126	2	0.900053	12	-5.9662e-07
2	1	0	1	0	683.277	0.0285787	0.0298304	-0.0360585	2	0.899888	12	-1.07564e-06
2	0	0	1	0	687.418	0.0699916	0.0705729	-0.0259072	3	0.899759	12	-1.82834e-06
2	0	0	0	0	691.719	0.113005	0.114425	-0.0239036	3	0.899647	12	-2.73516e-06
2	0	0	1	0	696.021	0.156018	0.15522	-0.0203155	3	0.899554	12	-3.15338e-06
2	1	0	1	0	700.322	0.199032	0.200622	-0.0176868	3	0.899479	12	-3.54837e-06
2	1	0	0	0	704.623	0.242045	0.242358	-0.0140835	3	0.899421	12	-3.41324e-06
2	1	0	1	0	708.925	0.285058	0.28554	-0.00832242	3	0.899382	12	-2.37639e-06
2	1	0	1	0	713.226	0.328072	0.327815	-0.00236443	3	0.899366	12	-7.75095e-07
2	0	0	0	0	717.527	0.371085	0.371471	0.00814066	3	0.899378	12	3.02402e-06
2	0	0	1	0	721.829	0.414098	0.413294	0.0213258	3	0.899427	12	8.81381e-06
2	0	0	1	0	726.13	0.457112	0.457681	0.0417302	3	0.899542	12	1.90991e-05
2	1	0	0	0	730.431	0.500125	0.501227	0.078023	3	0.899794	12	3.91073e-05
2	1	0	1	0	734.763	0.543438	0.543784	0.150074	3	0.900286	11	8.16081e-05
2	1	0	1	0	739.064	0.586452	0.58739	0.259785	3	0.901174	11	0.000152595
2	1	0	0	0	743.365	0.629465	0.630078	0.475819	3	0.902728	11	0.000299803
2	1	0	1	0	747.667	0.672478	0.673389	1.01657	3	0.905783	11	0.000684548
2	1	0	1	0	751.968	0.715492	0.715924	2.01997	3	0.912146	11	0.00144615
2	1	0	0	0	756.269	0.758505	0.757992	3.35297	3	0.923593	11	0.00254152
2	1	0	1	0	760.571	0.801518	0.802225	4.88375	3	0.94126	11	0.00391787
2	1	0	1	0	764.872	0.844531	0.845999	6.53698	3	0.965819	11	0.00553028
2	1	0	0	0	769.173	0.887545	0.888488	8.27073	3	0.997686	11	0.00734844
2	1	0	1	0	773.475	0.930558	0.931844	10.0708	3	1.03713	11	0.00938443
2	1	0	1	0	777.806	0.973872	0.974316	11.9048	3	1.08473	10	0.011599
2	1	0	0	0	781.978	0.984475	0.985612	12.3651	3	1.13706	10	0.0121871
2	1	0	1	0	786.279	0.941461	0.941648	10.5485	3	1.18629	10	0.00993301
2	1	0	1	0	790.58	0.898448	0.899933	8.78832	3	1.22786	10	0.0079089
2	1	0	0	0	794.882	0.855435	0.856145	7.09712	3	1.26202	10	0.00607617
2	1	0	1	0	799.183	0.812422	0.813281	5.4883	3	1.28906	10	0.00446353
2	1	0	1	0	803.514	0.769108	0.769288	3.96995	3	1.3095	11	0.00305403
2	1	0	0	0	807.816	0.726095	0.726508	2.59945	3	1.32356	11	0.00188852
2	1	0	1	0	812.117	0.683082	0.684203	1.43619	3	1.33212	11	0.000982643
2	1	0	1	0	816.418	0.640068	0.639707	0.585386	3	1.33629	11	0.000374476
2	1	0	0	0	820.72	0.597055	0.597802	0.108791	3	1.33764	11	6.50353e-05
2	1	0	1	0	825.021	0.554042	0.554839	-0.0847057	3	1.33764	11	-4.6998e-05
2	0	0	1	0	829.322	0.511028	0.511645	-0.142573	3	1.33713	11	-7.29467e-05
2	0	0	0	0	833.624	0.468015	0.469056	-0.148929	3	1.33647	11	-6.98559e-05
2	0	0	1	0	837.925	0.425002	0.424914	-0.143952	3	1.33581	11	-6.11671e-05
2	0	0	1	0	842.226	0.381988	0.382293	-0.13144	3	1.33521	11	-5.02486e-05
2	1	0	0	0	846.528	0.338975	0.339926	-0.113785	3	1.3347	11	-3.86785e-05
2	1	0	1	0	850.829	0.295962	0.29664	-0.0934724	3	1.33426	11	-2.77276e-05
2	0	0	1	0	855.13	0.252948	0.254762	-0.0788961	3	1.33388	11	-2.00997e-05
2	0	0	0	0	859.462	0.209635	0.20933	-0.0701494	3	1.33354	12	-1.46844e-05
2	0	0	1	0	863.763	0.166621	0.166294	-0.0648217	3	1.33325	12	-1.07795e-05
2	0	0	1	0	868.064	0.123608	0.124748	-0.0603746	3	1.33298	12	-7.53159e-06
2	0	0	0	0	872.366	0.0805949	0.0814006	-0.056663	3	1.33273	12	-4.61241e-06
2	0	0	1	0	876.667	0.0375815	0.0372144	-0.0543133	3	1.33249	12	-2.02124e-06
2	0	0	0	1	880.879	0.0045713	0.00396205	-0.04768	3	1.33228	12	-1.8891e-07
2	1	0	0	1	883.653	0.0323299	0.0304108	-0.0168144	3	1.33216	12	-5.11338e-07