Folder: EC-Lab-Processing/Lares Oxides (part 2)

File: 2024-6-18 Ni33Co33Fe33Ox on FTO_1_07mg_01_PEIS_C05.mpt
EC-Lab ASCII FILE
Nb header lines : 65

Potentio Electrochemical Impedance Spectroscopy

Run on channel : 5 (SN 39658)
User :
CE vs. WE compliance from -10 V to 10 V
Electrode connection : standard
Potential control : Ewe
Ewe ctrl range : min = -2.50 V, max = 2.50 V
Safety Limits :
	Do not start on E overload
Acquisition started on : 06/18/2024 16:38:11.272
Technique started on : 06/18/2024 16:38:12.810
Loaded Setting File :  NONE
Saved on :
	File : 2024-6-18 Ni33Co33Fe33Ox on FTO_1_07mg_01_PEIS_C05.mpr
	Directory : C:\Users\sfolkman\OneDrive - New Mexico State University\Folkman Group Folder\Scott\
	Host : 172.24.124.15
Device : VSP (SN 1910)
Address : USB
EC-Lab for windows v11.46 (software)
Internet server v11.40 (firmware)
Command interpretor v11.40 (firmware)
Electrode material :
Initial state :
Electrolyte :
Comments :
Current amplifier : VSPB-4A
Electrode surface area : 0.001 cm²
Characteristic mass : 0.001 g
Equivalent Weight : 0.000 g/eq.
Density : 0.000 g/cm3
Volume (V) : 0.001 cm³
Cycle Definition : Charge/Discharge alternance
Mode                Single sine
E (V)               0.0000
vs.                 Eoc
tE (h:m:s)          0:00:0.0000
record              0
dI                  0.000
unit dI             mA
dt (s)              0.000
fi                  200.000
unit fi             kHz
ff                  100.000
unit ff             mHz
Nd                  6
Points              per decade
spacing             Logarithmic
Va (mV)             10.0
pw                  0.10
Na                  2
corr                0
E range min (V)     -2.500
E range max (V)     2.500
I Range             Auto
Bandwidth           4
nc cycles           0
goto Ns'            0
nr cycles           0
inc. cycle          0

freq/Hz	Re(Z)/Ohm	-Im(Z)/Ohm	|Z|/Ohm	Phase(Z)/deg	time/s	<Ewe>/V	<I>/mA	Cs/µF	Cp/µF	cycle number	I Range	|Ewe|/V	|I|/A	Ns	(Q-Qo)/mA.h	Re(Y)/Ohm-1	Im(Y)/Ohm-1	|Y|/Ohm-1	Phase(Y)/deg	Re(C)/nF	Im(C)/nF	|C|/nF	Phase(C)/deg	Re(M)	Im(M)	|M|	Phase(M)/deg	Re(Permittivity)	Im(Permittivity)	|Permittivity|	Phase(Permittivity)/deg	Re(Resistivity)/Ohm.cm	Im(Resistivity)/Ohm.cm	|Resistivity|/Ohm.cm	Phase(Resistivity)/deg	Re(Conductivity)/mS/cm	Im(Conductivity)/mS/cm	|Conductivity|/mS/cm	Phase(Conductivity)/deg	Tan(Delta)	Loss Angle(Delta)/deg	dq/mA.h
199998	9.48079	15.4532	18.1298	-58.4703	1.53848	-0.0593509	-0.0126542	0.0514961	0.0374136	1	10	0.00907579	0.000500602	0	-3.87779e-06	0.0288444	0.0470149	0.0551579	58.4703	37.4136	22.9538	43.8937	-31.5297	0.0000000E+000	0.0000000E+000	0.0000000E+000	31.5297	0.0000000E+000	0.0000000E+000	0.0000000E+000	-31.5297	0.0000000E+000	0.0000000E+000	0.0000000E+000	-58.4703	0.0000000E+000	0.0000000E+000	0.0000000E+000	58.4703	0.613515	58.4703	-3.87779e-06
91291.2	17.1396	8.85573	19.2922	-27.3246	2.7285	-0.0592636	-0.012483	0.196864	0.0414813	1	10	0.0101254	0.000524846	0	-1.12147e-07	0.0460507	0.0237936	0.0518344	27.3246	41.4813	80.2838	90.3669	-62.6754	0.0000000E+000	0.0000000E+000	0.0000000E+000	62.6754	0.0000000E+000	0.0000000E+000	0.0000000E+000	-62.6754	0.0000000E+000	0.0000000E+000	0.0000000E+000	-27.3246	0.0000000E+000	0.0000000E+000	0.0000000E+000	27.3246	1.93542	27.3246	-1.60576e-06
41669.8	16.8093	2.92122	17.0612	-9.85873	3.62049	-0.0592607	-0.0126449	1.30748	0.0383303	1	10	0.0104998	0.000615419	0	-1.05398e-05	0.0577469	0.0100356	0.0586124	9.85873	38.3303	220.56	223.866	-80.1413	0.0000000E+000	0.0000000E+000	0.0000000E+000	80.1413	0.0000000E+000	0.0000000E+000	0.0000000E+000	-80.1413	0.0000000E+000	0.0000000E+000	0.0000000E+000	-9.85873	0.0000000E+000	0.0000000E+000	0.0000000E+000	9.85873	5.75421	9.85873	-4.21435e-06
19020.9	16.0901	2.19012	16.2385	-7.75123	4.5125	-0.0592518	-0.0126561	3.8205	0.0694969	1	10	0.0103234	0.000635737	0	-8.12713e-06	0.0610194	0.00830572	0.0615821	7.75123	69.4969	510.571	515.279	-82.2488	0.0000000E+000	0.0000000E+000	0.0000000E+000	82.2488	0.0000000E+000	0.0000000E+000	0.0000000E+000	-82.2488	0.0000000E+000	0.0000000E+000	0.0000000E+000	-7.75123	0.0000000E+000	0.0000000E+000	0.0000000E+000	7.75123	7.34668	7.75123	3.42011e-06
8683.37	16.0844	2.99466	16.3608	-10.5468	5.43199	-0.05928	-0.0122578	6.12047	0.205054	1	10	0.0102356	0.000625615	0	-1.23572e-05	0.060089	0.0111876	0.0611216	10.5468	205.054	1101.35	1120.28	-79.4532	0.0000000E+000	0.0000000E+000	0.0000000E+000	79.4532	0.0000000E+000	0.0000000E+000	0.0000000E+000	-79.4532	0.0000000E+000	0.0000000E+000	0.0000000E+000	-10.5468	0.0000000E+000	0.0000000E+000	0.0000000E+000	10.5468	5.37104	10.5468	-1.92188e-06
3961.2	16.1862	5.7826	17.1881	-19.6595	6.54495	-0.0592232	-0.0147481	6.94817	0.786428	1	10	0.0106508	0.000619657	0	-1.61588e-05	0.0547883	0.0195734	0.0581796	19.6595	786.428	2201.31	2337.57	-70.3405	0.0000000E+000	0.0000000E+000	0.0000000E+000	70.3405	0.0000000E+000	0.0000000E+000	0.0000000E+000	-70.3405	0.0000000E+000	0.0000000E+000	0.0000000E+000	-19.6595	0.0000000E+000	0.0000000E+000	0.0000000E+000	19.6595	2.79912	19.6595	-4.71366e-06
1808.26	16.3	12.0416	20.2655	-36.4551	7.49296	-0.0592203	-0.0146085	7.30928	2.58065	1	10	0.010906	0.000538155	0	-2.2398e-05	0.0396894	0.0293205	0.0493451	36.4551	2580.65	3493.27	4343.12	-53.5449	0.0000000E+000	0.0000000E+000	0.0000000E+000	53.5449	0.0000000E+000	0.0000000E+000	0.0000000E+000	-53.5449	0.0000000E+000	0.0000000E+000	0.0000000E+000	-36.4551	0.0000000E+000	0.0000000E+000	0.0000000E+000	36.4551	1.35364	36.4551	-2.06183e-06
825.264	16.5726	25.974	30.8108	-57.4603	8.43967	-0.0592317	-0.0148467	7.42485	5.2767	1	10	0.0107843	0.000350016	0	-2.68795e-05	0.0174577	0.0273612	0.0324562	57.4603	5276.7	3366.77	6259.29	-32.5397	0.0000000E+000	0.0000000E+000	0.0000000E+000	32.5397	0.0000000E+000	0.0000000E+000	0.0000000E+000	-32.5397	0.0000000E+000	0.0000000E+000	0.0000000E+000	-57.4603	0.0000000E+000	0.0000000E+000	0.0000000E+000	57.4603	0.638045	57.4603	-1.96839e-06
377.051	17.2113	56.6259	59.1838	-73.0935	9.88469	-0.0592568	-0.00180346	7.45426	6.82385	1	11	0.00981725	0.000165877	0	-2.7068e-05	0.00491369	0.0161663	0.0168965	73.0935	6823.85	2074.09	7132.09	-16.9065	0.0000000E+000	0.0000000E+000	0.0000000E+000	16.9065	0.0000000E+000	0.0000000E+000	0.0000000E+000	-16.9065	0.0000000E+000	0.0000000E+000	0.0000000E+000	-73.0935	0.0000000E+000	0.0000000E+000	0.0000000E+000	73.0935	0.303947	73.0935	-2.58298e-07
172.037	18.5182	122.726	124.115	-81.4193	10.8274	-0.0592424	-0.00179527	7.53813	7.37032	1	11	0.00959073	7.7273e-05	0	-2.82485e-05	0.00120213	0.00796687	0.00805706	81.4193	7370.32	1112.12	7453.75	-8.58069	0.0000000E+000	0.0000000E+000	0.0000000E+000	8.58069	0.0000000E+000	0.0000000E+000	0.0000000E+000	-8.58069	0.0000000E+000	0.0000000E+000	0.0000000E+000	-81.4193	0.0000000E+000	0.0000000E+000	0.0000000E+000	81.4193	0.150891	81.4193	-2.86336e-07
78.5176	22.6928	265.188	266.157	-85.109	12.0465	-0.0592284	-0.000154428	7.64363	7.58807	1	12	0.00964285	3.623e-05	0	-2.90356e-05	0.000320342	0.0037435	0.00375718	85.109	7588.07	649.332	7615.8	-4.89104	0.0000000E+000	0.0000000E+000	0.0000000E+000	4.89104	0.0000000E+000	0.0000000E+000	0.0000000E+000	-4.89104	0.0000000E+000	0.0000000E+000	0.0000000E+000	-85.109	0.0000000E+000	0.0000000E+000	0.0000000E+000	85.109	0.0855727	85.109	-5.17359e-07
35.8372	34.0302	568.03	569.049	-86.5716	12.9991	-0.0592071	-0.000230375	7.81835	7.79039	1	12	0.00954644	1.67761e-05	0	-2.92402e-05	0.000105091	0.00175417	0.00175732	86.5716	7790.39	466.715	7804.36	-3.42844	0.0000000E+000	0.0000000E+000	0.0000000E+000	3.42844	0.0000000E+000	0.0000000E+000	0.0000000E+000	-3.42844	0.0000000E+000	0.0000000E+000	0.0000000E+000	-86.5716	0.0000000E+000	0.0000000E+000	0.0000000E+000	86.5716	0.0599091	86.5716	-1.19827e-07
16.367	84.0055	1226.49	1229.37	-86.0818	13.9251	-0.0592045	-0.000190839	7.92843	7.89141	1	12	0.00952783	7.7502e-06	0	-2.91466e-05	5.55835e-05	0.000811526	0.000813428	86.0818	7891.41	540.502	7909.89	-3.91821	0.0000000E+000	0.0000000E+000	0.0000000E+000	3.91821	0.0000000E+000	0.0000000E+000	0.0000000E+000	-3.91821	0.0000000E+000	0.0000000E+000	0.0000000E+000	-86.0818	0.0000000E+000	0.0000000E+000	0.0000000E+000	86.0818	0.0684925	86.0818	7.0512e-08
7.46893	198.244	2621.41	2628.89	-85.6752	14.9446	-0.0592203	-6.59607e-06	8.12882	8.08259	1	13	0.00955898	3.63613e-06	0	-2.90924e-05	2.8685e-05	0.000379305	0.000380388	85.6752	8082.59	611.246	8105.67	-4.32476	0.0000000E+000	0.0000000E+000	0.0000000E+000	4.32476	0.0000000E+000	0.0000000E+000	0.0000000E+000	-4.32476	0.0000000E+000	0.0000000E+000	0.0000000E+000	-85.6752	0.0000000E+000	0.0000000E+000	0.0000000E+000	85.6752	0.0756249	85.6752	1.32001e-08
3.4086	492.716	5424.88	5447.21	-84.8103	16.0872	-0.0592233	4.88019e-05	8.60706	8.53664	1	13	0.00952486	1.74858e-06	0	-2.9107e-05	1.66054e-05	0.000182828	0.00018358	84.8103	8536.64	775.342	8571.77	-5.18967	0.0000000E+000	0.0000000E+000	0.0000000E+000	5.18967	0.0000000E+000	0.0000000E+000	0.0000000E+000	-5.18967	0.0000000E+000	0.0000000E+000	0.0000000E+000	-84.8103	0.0000000E+000	0.0000000E+000	0.0000000E+000	84.8103	0.0908252	84.8103	4.33678e-09
2.30321	743.104	7974.41	8008.96	-84.6762	22.8911	-0.0592138	-1.15632e-05	8.66537	8.59077	1	13	0.0104034	1.29897e-06	0	-2.90294e-05	1.1585e-05	0.000124322	0.00012486	84.6762	8590.77	800.54	8627.99	-5.32379	0.0000000E+000	0.0000000E+000	0.0000000E+000	5.32379	0.0000000E+000	0.0000000E+000	0.0000000E+000	-5.32379	0.0000000E+000	0.0000000E+000	0.0000000E+000	-84.6762	0.0000000E+000	0.0000000E+000	0.0000000E+000	84.6762	0.0931861	84.6762	7.75566e-08

File: 2024-6-18 Ni33Co33Fe33Ox on FTO_1_07mg_02_CV_C05.mpt
EC-Lab ASCII FILE
Nb header lines : 59

Cyclic Voltammetry

Run on channel : 5 (SN 39658)
User :
CE vs. WE compliance from -10 V to 10 V
Electrode connection : standard
Potential control : Ewe
Ewe ctrl range : min = -2.50 V, max = 2.50 V
Safety Limits :
	Do not start on E overload
Acquisition started on : 06/18/2024 16:38:11.272
Technique started on : 06/18/2024 16:38:37.557
Loaded Setting File :  NONE
Saved on :
	File : 2024-6-18 Ni33Co33Fe33Ox on FTO_1_07mg_02_CV_C05.mpr
	Directory : C:\Users\sfolkman\OneDrive - New Mexico State University\Folkman Group Folder\Scott\
	Host : 172.24.124.15
Device : VSP (SN 1910)
Address : USB
EC-Lab for windows v11.46 (software)
Internet server v11.40 (firmware)
Command interpretor v11.40 (firmware)
Electrode material :
Initial state :
Electrolyte :
Comments :
Current amplifier : VSPB-4A
Electrode surface area : 0.001 cm²
Characteristic mass : 0.001 g
Equivalent Weight : 0.000 g/eq.
Density : 0.000 g/cm3
Volume (V) : 0.001 cm³
Cycle Definition : Charge/Discharge alternance
Ei (V)              0.000
vs.                 Eoc
dE/dt               10.000
dE/dt unit          mV/s
E1 (V)              1.000
vs.                 Ref
Step percent        50
N                   10
E range min (V)     -2.500
E range max (V)     2.500
I Range             Auto
I Range min         Unset
I Range max         Unset
I Range init        Unset
Bandwidth           4
E2 (V)              0.000
vs.                 Ref
nc cycles           2
Reverse Scan        1
Ef (V)              0.000
vs.                 Eoc

mode	ox/red	error	control changes	counter inc.	time/s	control/V	Ewe/V	<I>/mA	cycle number	(Q-Qo)/C	I Range	P/W
2	1	0	1	0	26.2848	-0.0593985	-0.0600759	0.00407428	1	0.0000000E+000	13	-2.44766e-07
2	1	0	1	0	30.641	-0.015835	-0.0154082	0.000151595	1	4.98786e-07	13	-2.33581e-09
2	1	0	0	0	35.0424	0.0281786	0.0287175	0.000139381	1	1.37352e-06	13	4.00268e-09
2	1	0	1	0	39.4438	0.0721923	0.0727647	0.0002011	1	2.88998e-06	13	1.4633e-08
2	1	0	0	0	43.8452	0.116206	0.116629	0.000802557	1	5.75673e-06	13	9.36018e-08
2	1	0	1	0	48.2465	0.160219	0.160426	0.00269253	1	1.29984e-05	13	4.31951e-07
2	1	0	1	0	52.6478	0.204233	0.2048	0.011571	1	4.44246e-05	13	2.36974e-06
2	1	0	0	0	57.0792	0.248547	0.249026	0.0157095	1	0.000111898	12	3.91208e-06
2	1	0	1	0	61.4806	0.29256	0.293261	0.017287	1	0.000189097	12	5.06959e-06
2	1	0	0	0	65.882	0.336574	0.336767	0.0173095	1	0.000268879	12	5.82928e-06
2	0	0	1	0	70.2834	0.380588	0.381255	0.0202631	1	0.000353245	12	7.72541e-06
2	0	0	1	0	74.6847	0.424601	0.425235	0.0240501	1	0.000449008	12	1.0227e-05
2	0	0	0	0	79.086	0.468615	0.468949	0.0314773	1	0.000567067	12	1.47613e-05
2	0	0	1	0	83.4874	0.512629	0.513319	0.0442945	1	0.00072923	12	2.27372e-05
2	1	0	0	0	87.8888	0.556642	0.557155	0.0646909	1	0.000966834	12	3.60428e-05
2	1	0	1	0	92.2902	0.600656	0.601162	0.10921	1	0.00133686	12	6.56526e-05
2	1	0	0	0	96.6916	0.64467	0.645355	0.332695	1	0.00218228	12	0.000214707
2	1	0	1	0	101.123	0.688983	0.68968	1.2361	1	0.00534071	11	0.000852514
2	1	0	1	0	105.524	0.732997	0.733705	2.90981	1	0.0142621	11	0.00213495
2	1	0	0	0	109.926	0.777011	0.777671	5.00229	1	0.0315901	11	0.00389013
2	1	0	1	0	114.327	0.821024	0.821326	7.2951	1	0.0586189	11	0.00599165
2	1	0	0	0	118.728	0.865038	0.86548	9.69983	1	0.0960097	11	0.008395
2	1	0	1	0	123.16	0.909352	0.909869	12.1809	1	0.144491	10	0.011083
2	1	0	1	0	127.561	0.953364	0.954209	14.6874	1	0.203631	10	0.0140148
2	1	0	0	0	131.962	0.997379	0.998039	17.2212	1	0.273862	10	0.0171874
2	1	0	1	0	136.184	0.960467	0.961181	15.0915	1	0.342647	10	0.0145057
2	1	0	0	0	140.586	0.916454	0.916899	12.6037	1	0.403554	10	0.0115563
2	1	0	1	0	144.987	0.87244	0.872528	10.1813	1	0.453649	10	0.00888344
2	1	0	0	0	149.388	0.828426	0.828944	7.83709	1	0.493243	10	0.00649651
2	1	0	1	0	153.79	0.784413	0.78497	5.60466	1	0.522753	10	0.00439949
2	1	0	1	0	158.221	0.7401	0.740516	3.54938	1	0.542929	11	0.00262837
2	1	0	0	0	162.622	0.696085	0.696548	1.7988	1	0.554536	11	0.00125295
2	1	0	1	0	167.024	0.652072	0.65267	0.587238	1	0.559516	11	0.000383273
2	1	0	0	0	171.455	0.607758	0.607733	0.0819926	1	0.560749	12	4.98296e-05
2	1	0	1	0	175.857	0.563745	0.564311	-0.0177311	1	0.560817	12	-1.00058e-05
2	0	0	0	0	180.258	0.519731	0.520169	-0.0292501	1	0.560695	12	-1.5215e-05
2	0	0	1	0	184.659	0.475718	0.476088	-0.026811	1	0.560561	12	-1.27644e-05
2	0	0	1	0	189.061	0.431704	0.432051	-0.0217574	1	0.560445	12	-9.40031e-06
2	0	0	0	0	193.462	0.38769	0.388432	-0.0169656	1	0.560348	12	-6.58999e-06
2	0	0	1	0	197.863	0.343676	0.344313	-0.0129018	1	0.560268	12	-4.44226e-06
2	0	0	0	0	202.265	0.299663	0.299946	-0.0114002	1	0.560202	12	-3.41944e-06
2	0	0	1	0	206.666	0.255649	0.256232	-0.00966041	1	0.560146	12	-2.4753e-06
2	0	0	1	0	211.067	0.211635	0.212039	-0.0104389	1	0.560097	12	-2.21346e-06
2	1	0	0	0	215.469	0.167622	0.168113	-0.0129375	1	0.560046	12	-2.17497e-06
2	1	0	1	0	219.87	0.123608	0.123934	-0.0249774	1	0.559962	12	-3.09555e-06
2	1	0	0	0	224.272	0.0795945	0.080136	-0.0163413	1	0.559886	12	-1.30953e-06
2	1	0	1	0	228.673	0.0355809	0.0357641	-0.0198966	1	0.559805	12	-7.11584e-07
2	0	0	0	1	232.985	0.00757223	0.00813252	-0.0120932	2	0.559724	13	-9.83481e-08
2	0	0	1	1	237.416	0.051886	0.0523081	-0.00402871	2	0.559693	12	-2.10734e-07
2	0	0	0	1	241.818	0.0958996	0.0964848	-0.000568556	2	0.559682	12	-5.48569e-08
2	0	0	0	1	246.219	0.139913	0.140011	0.00558331	2	0.559692	12	7.81725e-07
2	0	0	1	1	250.62	0.183927	0.184416	0.00352433	2	0.559711	12	6.49942e-07
2	0	0	0	1	255.022	0.22794	0.228149	0.00335181	2	0.559728	12	7.64712e-07
2	0	0	1	1	259.423	0.271954	0.272368	0.00430854	2	0.559746	12	1.17351e-06
2	0	0	0	1	263.824	0.315968	0.316408	0.00582245	2	0.559771	12	1.84227e-06
2	0	0	1	1	268.226	0.359981	0.360484	0.00849627	2	0.559804	12	3.06277e-06
2	0	0	1	1	272.627	0.403995	0.40438	0.0131681	2	0.559853	12	5.32492e-06
2	0	0	0	1	277.028	0.448009	0.448515	0.0206286	2	0.559926	12	9.25224e-06
2	0	0	1	1	281.43	0.492022	0.492922	0.0327789	2	0.560041	12	1.61575e-05
2	1	0	0	1	285.831	0.536036	0.536532	0.0510414	2	0.560222	12	2.73853e-05
2	1	0	1	1	290.233	0.58005	0.580442	0.0810492	2	0.560508	12	4.70443e-05
2	1	0	1	1	294.634	0.624064	0.624581	0.193832	2	0.561052	12	0.000121064
2	1	0	0	1	299.035	0.668077	0.668339	0.770125	2	0.562901	12	0.000514705
2	1	0	1	1	303.467	0.712391	0.712799	2.19058	2	0.569181	11	0.00156144
2	1	0	0	1	307.868	0.756404	0.756953	4.17462	2	0.583047	11	0.00316
2	1	0	1	1	312.269	0.800418	0.800705	6.43628	2	0.606335	11	0.00515357
2	1	0	0	1	316.671	0.844431	0.845211	8.83161	2	0.639909	11	0.00746458
2	1	0	1	1	321.102	0.888745	0.889048	11.2953	2	0.68451	10	0.010042
2	1	0	1	1	325.503	0.932759	0.933239	13.7891	2	0.739714	10	0.0128685
2	1	0	0	1	329.905	0.976773	0.977194	16.2454	2	0.805816	10	0.0158749
2	1	0	1	1	334.187	0.980474	0.980955	16.3245	2	0.87818	10	0.0160136
2	1	0	0	1	338.588	0.93646	0.936973	13.7656	2	0.944346	10	0.012898
2	1	0	1	1	342.989	0.892446	0.892674	11.3047	2	0.999477	10	0.0100914
2	1	0	0	1	347.391	0.848433	0.848967	8.93248	2	1.04395	10	0.00758338
2	1	0	1	1	351.792	0.804419	0.805045	6.65616	2	1.07819	10	0.00535851
2	1	0	1	1	356.193	0.760405	0.760767	4.51884	2	1.10271	10	0.00343778
2	1	0	0	1	360.625	0.716092	0.716461	2.59404	2	1.11837	11	0.00185853
2	1	0	1	1	365.026	0.672078	0.672185	1.07471	2	1.12624	11	0.000722404
2	1	0	0	1	369.458	0.627764	0.628263	0.224014	2	1.12881	12	0.00014074
[...]
2	1	0	0	1	422.274	0.0996007	0.0996102	-0.0121646	2	1.1281	12	-1.21172e-06
2	1	0	1	1	426.675	0.0555871	0.0558123	-0.0109995	2	1.12805	12	-6.13906e-07
2	1	0	1	1	431.107	0.0112743	0.0117984	-0.0115284	2	1.128	13	-1.36017e-07
2	1	0	1	0	435.389	0.0315797	0.0323289	-0.00469314	3	1.12796	13	-1.51724e-07
2	1	0	1	0	439.82	0.0758936	0.0764611	-0.00311956	3	1.12795	12	-2.38525e-07
2	1	0	0	0	444.221	0.119907	0.120296	-0.00135598	3	1.12795	12	-1.63119e-07
2	1	0	1	0	448.623	0.163921	0.164543	-0.00101276	3	1.12795	12	-1.66643e-07
2	1	0	0	0	453.024	0.207934	0.208434	-0.00062189	3	1.12796	12	-1.29623e-07
2	1	0	1	0	457.425	0.251948	0.252398	0.000102053	3	1.12797	12	2.5758e-08
2	1	0	0	0	461.827	0.295962	0.296163	0.000973117	3	1.12798	12	2.88202e-07
2	1	0	1	0	466.228	0.339976	0.340463	0.00271057	3	1.128	12	9.22848e-07
2	1	0	1	0	470.629	0.383989	0.384327	0.00627071	3	1.12803	12	2.41e-06
2	1	0	0	0	475.031	0.428003	0.428302	0.0105746	3	1.12807	12	4.52911e-06
2	1	0	1	0	479.432	0.472016	0.472293	0.0185109	3	1.12814	12	8.74258e-06
2	1	0	0	0	483.834	0.51603	0.51674	0.0323151	3	1.12825	12	1.66985e-05
2	1	0	1	0	488.235	0.560043	0.560226	0.05187	3	1.12844	12	2.90589e-05
2	1	0	1	0	492.636	0.604057	0.604632	0.0953093	3	1.12874	12	5.7627e-05
2	1	0	0	0	497.038	0.648071	0.648176	0.320714	3	1.12951	12	0.000207879
2	1	0	1	0	501.469	0.692384	0.692813	1.2352	3	1.13263	11	0.000855765
2	1	0	0	0	505.87	0.736398	0.736821	2.91642	3	1.14156	11	0.00214888
2	1	0	1	0	510.272	0.780412	0.780567	4.9999	3	1.1589	11	0.00390276
2	1	0	1	0	514.673	0.824424	0.824842	7.20939	3	1.18576	11	0.0059466
2	1	0	0	0	519.074	0.868439	0.868753	9.50214	3	1.22253	11	0.00825501
2	1	0	1	0	523.506	0.912753	0.913206	11.7707	3	1.26971	10	0.0107491
2	1	0	0	0	527.907	0.956766	0.957291	13.9511	3	1.32634	10	0.0133552
2	1	0	1	0	532.234	1.00003	1.0005	16.0853	3	1.39119	10	0.0160933
2	1	0	0	0	536.59	0.956466	0.956976	13.3998	3	1.45501	10	0.0128232
2	1	0	1	0	540.992	0.912453	0.913002	10.7694	3	1.50819	10	0.00983251
2	1	0	0	0	545.393	0.868439	0.869079	8.26257	3	1.55001	10	0.00718082
2	1	0	1	0	549.794	0.824425	0.824785	6.07436	3	1.58141	10	0.00501004
2	1	0	1	0	554.226	0.780112	0.780662	3.93661	3	1.60353	11	0.00307316
2	1	0	0	0	558.627	0.736098	0.736523	2.04061	3	1.61653	11	0.00150296
2	1	0	1	0	563.029	0.692084	0.692585	0.664645	3	1.62222	11	0.000460324
2	1	0	0	0	567.46	0.647771	0.648167	0.0945068	3	1.6236	12	6.12562e-05
2	0	0	1	0	571.861	0.603757	0.6044	0.00611521	3	1.62375	12	3.69603e-06
2	1	0	1	0	576.263	0.559743	0.559954	-0.00289396	3	1.62374	12	-1.62048e-06
2	1	0	0	0	580.664	0.51573	0.516077	-0.00285368	3	1.62373	12	-1.47272e-06
2	1	0	1	0	585.065	0.471716	0.472139	-0.00281288	3	1.62372	12	-1.32807e-06
2	1	0	0	0	589.467	0.427702	0.428288	-0.00270693	3	1.6237	12	-1.15934e-06
2	1	0	1	0	593.868	0.383689	0.384067	-0.00200037	3	1.62369	12	-7.68276e-07
2	1	0	0	0	598.27	0.339675	0.340135	-0.00194901	3	1.62368	12	-6.62927e-07
2	1	0	1	0	602.671	0.295661	0.295857	-0.00195783	3	1.62367	12	-5.79237e-07
2	1	0	1	0	607.072	0.251648	0.252275	-0.00172404	3	1.62367	12	-4.34933e-07
2	1	0	0	0	611.474	0.207634	0.208106	-0.00192176	3	1.62366	12	-3.99929e-07
2	1	0	1	0	615.875	0.163621	0.164207	-0.00302233	3	1.62365	12	-4.9629e-07
2	1	0	0	0	620.276	0.119607	0.119824	-0.00563898	3	1.62363	12	-6.75685e-07
2	1	0	1	0	624.678	0.0755933	0.0755348	-0.00262596	3	1.62362	12	-1.98351e-07
2	1	0	1	0	629.079	0.0315797	0.0315396	-0.00280348	3	1.62361	12	-8.84206e-08
2	0	0	0	1	633.391	-0.0115337	-0.0110149	-0.00281158	3	1.62359	13	3.09694e-08
2	0	0	1	1	637.792	-0.0555473	-0.0547588	-0.00306065	3	1.62358	13	1.67597e-07
2	0	0	0	1	638.188	-0.0595986	-0.059744	-0.000908289	3	1.62358	13	5.42648e-08