Folder: EC-Lab-Processing/Lares Oxides (part 10)

File: 2024-6-26 CoOx on FTO_1_03mg_01_PEIS_C05.mpt
EC-Lab ASCII FILE
Nb header lines : 66

Potentio Electrochemical Impedance Spectroscopy

Run on channel : 5 (SN 39658)
User :
CE vs. WE compliance from -10 V to 10 V
Electrode connection : standard
Potential control : Ewe
Ewe ctrl range : min = -2.50 V, max = 2.50 V
Safety Limits :
	Do not start on E overload
Acquisition started on : 06/26/2024 14:29:21.159
Technique started on : 06/26/2024 14:29:22.953
Loaded Setting File :  C:\Users\sfolkman\OneDrive - New Mexico State University\Folkman Group Folder\Scott\2024-6-19 FeOx on FTO_1_03mg.mps
Saved on :
	File : 2024-6-26 CoOx on FTO_1_03mg_01_PEIS_C05.mpr
	Directory : C:\Users\sfolkman\OneDrive - New Mexico State University\Folkman Group Folder\Scott\
	Host : 172.24.124.15
Device : VSP (SN 1910)
Address : USB
EC-Lab for windows v11.46 (software)
Internet server v11.40 (firmware)
Command interpretor v11.40 (firmware)
Electrode material :
Initial state :
Electrolyte :
Comments :
Current amplifier : VSPB-4A
Electrode surface area : 0.001 cm²
Characteristic mass : 0.001 g
Equivalent Weight : 0.000 g/eq.
Density : 0.000 g/cm3
Volume (V) : 0.001 cm³
Record Ece
Cycle Definition : Charge/Discharge alternance
Mode                Single sine
E (V)               0.0000
vs.                 Eoc
tE (h:m:s)          0:00:0.0000
record              0
dI                  0.000
unit dI             mA
dt (s)              0.000
fi                  200.000
unit fi             kHz
ff                  100.000
unit ff             mHz
Nd                  6
Points              per decade
spacing             Logarithmic
Va (mV)             10.0
pw                  0.10
Na                  2
corr                0
E range min (V)     -2.500
E range max (V)     2.500
I Range             Auto
Bandwidth           4
nc cycles           0
goto Ns'            0
nr cycles           0
inc. cycle          0

freq/Hz	Re(Z)/Ohm	-Im(Z)/Ohm	|Z|/Ohm	Phase(Z)/deg	time/s	<Ewe>/V	<I>/mA	Cs/µF	Cp/µF	cycle number	I Range	|Ewe|/V	|I|/A	Ns	(Q-Qo)/mA.h	<Ece>/V	|Ece|/V	Phase(Zce)/deg	|Zce|/Ohm	Re(Zce)/Ohm	-Im(Zce)/Ohm	Phase(Zwe-ce)/deg	|Zwe-ce|/Ohm	Re(Zwe-ce)/Ohm	-Im(Zwe-ce)/Ohm	Re(Y)/Ohm-1	Im(Y)/Ohm-1	|Y|/Ohm-1	Phase(Y)/deg	dq/mA.h
199998	7.5177	14.1358	16.0105	-61.995	1.79353	0.183916	-0.0145769	0.0562956	0.0438838	1	10	0.0100247	0.000626135	0	-8.33091e-07	0.0914792	0.00919703	68.3528	14.6886	5.41848	-13.6526	-2.13895	12.9452	12.9362	0.483155	0.0293275	0.0551455	0.062459	61.995	-8.33091e-07
91291.2	12.8161	9.09914	15.7177	-35.3739	2.86353	0.183926	-0.0136314	0.191598	0.0642115	1	10	0.0100521	0.000639541	0	7.90545e-06	0.0822374	0.00459549	82.7849	7.18562	0.902469	-7.12872	-8.1736	13.8593	13.7186	1.97042	0.0518772	0.0368317	0.0636225	35.3739	3.40992e-06
41669.8	14.5951	6.03446	15.7934	-22.463	3.66555	0.184012	-0.013207	0.632938	0.0924025	1	10	0.0105542	0.000668262	0	1.21484e-05	0.0834785	0.00173379	79.155	2.59448	0.488158	-2.54814	-13.0146	15.481	15.0833	3.48631	0.0585133	0.0241927	0.0633174	22.463	3.50656e-06
19020.9	16.409	5.92411	17.4456	-19.851	4.46753	0.183852	-0.0239052	1.41242	0.162869	1	10	0.0104836	0.000600927	0	1.20356e-06	0.084796	0.000821314	41.8003	1.36675	1.01887	-0.910985	-16.0479	18.1346	17.4279	5.01313	0.0539148	0.0194648	0.0573209	19.851	-6.67666e-06
8684.68	18.8021	6.56535	19.9154	-19.2482	5.26953	0.184033	-0.0142642	2.79131	0.303351	1	10	0.0102427	0.000514308	0	-3.58657e-06	0.0852543	0.000505542	12.3721	0.982956	0.960128	-0.210608	-17.8257	20.7588	19.7623	6.35474	0.0474054	0.0165531	0.0502124	19.2482	-4.42829e-06
3960.08	20.8604	8.32852	22.4615	-21.7644	6.00482	0.183972	-0.0155596	4.82557	0.663446	1	10	0.0101432	0.000451581	0	-2.44384e-06	0.0856935	0.00050806	-5.16273	1.12507	1.1205	0.101239	-20.982	23.5419	21.9809	8.42976	0.041347	0.0165078	0.0445206	21.7644	1.32297e-07
1808.26	23.1436	13.0023	26.5459	-29.3277	6.90405	0.184027	-0.0147407	6.76921	1.62399	1	10	0.0102265	0.000385239	0	-6.60554e-06	0.0856553	0.000518785	-27.939	1.34666	1.1897	0.630952	-29.2606	27.8922	24.3333	13.6332	0.0328424	0.0184512	0.0376706	29.3277	-3.79433e-06
825.264	27.5051	23.0564	35.8905	-39.9717	8.0728	0.183996	-0.00218307	8.36443	3.45191	1	11	0.0108128	0.000301271	0	-8.6997e-06	0.086801	0.000554938	-51.7779	1.84199	1.13966	1.4471	-40.5445	37.6954	28.6448	24.5035	0.0213528	0.0178991	0.0278625	39.9717	-1.59416e-06
377.051	36.8645	40.8653	55.0361	-47.9464	8.98683	0.184036	-0.00230483	10.3292	5.69482	1	11	0.010376	0.000188531	0	-8.063e-06	0.0864573	0.000616375	-62.3911	3.26936	1.51513	2.89708	-48.7492	58.2078	38.3797	43.7624	0.0121706	0.0134915	0.0181699	47.9464	-1.01826e-07
172.037	55.2267	69.6933	88.9221	-51.6058	9.8975	0.184019	-0.00219201	13.2742	8.15399	1	11	0.0101929	0.000114627	0	-7.3055e-06	0.0885386	0.000686691	-75.1733	5.99067	1.53299	5.79121	-53.0591	94.4435	56.7597	75.4845	0.0069844	0.00881397	0.0112458	51.6058	1.43245e-07
78.5176	87.787	113.859	143.772	-52.3672	10.8157	0.184018	-0.00210153	17.8027	11.1653	1	11	0.0101743	7.07671e-05	0	-7.53284e-06	0.0916319	0.000896187	-79.4456	12.6639	2.31964	12.4496	-54.4965	155.155	90.1067	126.309	0.00424699	0.0055083	0.00695545	52.3672	3.8498e-08
35.8372	139.335	180.606	228.107	-52.3504	11.9862	0.184016	-0.000554917	24.5897	15.4149	1	12	0.0102701	4.50232e-05	0	-8.18086e-06	0.0905435	0.00116826	-78.8329	25.9479	5.02535	25.4566	-54.9863	251.598	144.36	206.063	0.00267783	0.003471	0.00438391	52.3504	-1.71345e-07
16.367	214.197	283.262	355.131	-52.9042	12.8792	0.184009	-0.00063053	34.3291	21.8406	1	12	0.0101337	2.85351e-05	0	-8.09898e-06	0.0902762	0.00160092	-83.4051	56.1036	6.4434	55.7323	-56.9412	404.475	220.641	338.995	0.00169839	0.00224601	0.00281586	52.9042	-4.50068e-08
7.46893	336.23	465.534	574.259	-54.1615	13.6167	0.183988	-0.000561843	45.773	30.0814	1	12	0.0101869	1.77391e-05	0	-8.19535e-06	0.0913646	0.00197812	-84.4314	111.511	10.8208	110.985	-58.9531	672.918	347.051	576.519	0.00101958	0.00141168	0.00174138	54.1615	3.05504e-08
3.4086	523.633	751.115	915.623	-55.1181	15.0724	0.183986	-0.000413724	62.1639	41.8329	1	13	0.0100931	1.10232e-05	0	-8.46637e-06	0.0913455	0.00253623	-82.4623	230.08	30.1815	228.092	-60.5086	1124.97	553.815	979.207	0.000624588	0.000895927	0.00109215	55.1181	-3.12652e-08
1.55627	892.683	1255.29	1540.34	-54.5821	17.4071	0.183996	-0.000477635	81.4682	54.1061	1	13	0.0101678	6.60098e-06	0	-8.72728e-06	0.0927585	0.00303279	-82.5318	459.446	59.7165	455.548	-60.896	1958.07	952.399	1710.84	0.000376239	0.000529069	0.000649207	54.5821	-2.61823e-07
0.710357	1490.42	1967.02	2467.9	-52.8487	23.8965	0.184011	-0.00054897	113.903	72.3599	1	14	0.0101643	4.11858e-06	0	-9.99895e-06	0.101771	0.00392134	-77.2275	952.109	210.493	928.55	-59.5692	3358.19	1700.91	2895.57	0.000244711	0.000322964	0.000405203	52.8487	-8.18962e-07
0.324439	2525.65	2975.68	3903.02	-49.6767	34.8182	0.18401	-0.000595244	164.854	95.8234	1	14	0.0101564	2.60218e-06	0	-1.15737e-05	0.10328	0.00544993	-78.4174	2094.37	420.508	2051.72	-59.6289	5827.05	2946.15	5027.4	0.000165795	0.000195337	0.000256212	49.6767	-8.94188e-07
0.147897	4575.04	4314.15	6288.32	-43.3189	58.7051	0.184008	-0.000621492	249.44	117.405	1	14	0.0101542	1.61478e-06	0	-1.49268e-05	0.104043	0.00615723	-79.7165	3813.05	680.7	3751.8	-56.9119	9627.17	5255.74	8065.95	0.000115698	0.0001091	0.000159025	43.3189	-1.99165e-06
0.0999041	7404.41	2325.7	7761.07	-17.4373	79.7826	0.184008	-0.000640714	684.989	61.5102	1	14	0.0101542	1.30835e-06	0	-1.54113e-05	0.0997662	0.00754924	-87.2468	5770.04	277.155	5763.38	-46.4802	11155.2	7681.57	8089.07	0.000122927	3.86109e-05	0.000128848	17.4373	-4.84495e-07

File: 2024-6-26 CoOx on FTO_1_03mg_02_CV_C05.mpt
EC-Lab ASCII FILE
Nb header lines : 60

Cyclic Voltammetry

Run on channel : 5 (SN 39658)
User :
CE vs. WE compliance from -10 V to 10 V
Electrode connection : standard
Potential control : Ewe
Ewe ctrl range : min = -2.50 V, max = 2.50 V
Safety Limits :
	Do not start on E overload
Acquisition started on : 06/26/2024 14:29:21.159
Technique started on : 06/26/2024 14:30:41.093
Loaded Setting File :  C:\Users\sfolkman\OneDrive - New Mexico State University\Folkman Group Folder\Scott\2024-6-19 FeOx on FTO_1_03mg.mps
Saved on :
	File : 2024-6-26 CoOx on FTO_1_03mg_02_CV_C05.mpr
	Directory : C:\Users\sfolkman\OneDrive - New Mexico State University\Folkman Group Folder\Scott\
	Host : 172.24.124.15
Device : VSP (SN 1910)
Address : USB
EC-Lab for windows v11.46 (software)
Internet server v11.40 (firmware)
Command interpretor v11.40 (firmware)
Electrode material :
Initial state :
Electrolyte :
Comments :
Current amplifier : VSPB-4A
Electrode surface area : 0.001 cm²
Characteristic mass : 0.001 g
Equivalent Weight : 0.000 g/eq.
Density : 0.000 g/cm3
Volume (V) : 0.001 cm³
Record Ece
Cycle Definition : Charge/Discharge alternance
Ei (V)              0.000
vs.                 Eoc
dE/dt               10.000
dE/dt unit          mV/s
E1 (V)              1.000
vs.                 Ref
Step percent        50
N                   10
E range min (V)     -2.500
E range max (V)     2.500
I Range             Auto
I Range min         Unset
I Range max         Unset
I Range init        Unset
Bandwidth           4
E2 (V)              0.000
vs.                 Ref
nc cycles           2
Reverse Scan        1
Ef (V)              0.000
vs.                 Eoc

mode	ox/red	error	control changes	counter inc.	time/s	control/V	Ewe/V	<I>/mA	cycle number	(Q-Qo)/C	I Range	<Ece>/V	P/W	Ewe-Ece/V
2	0	0	1	0	79.9338	0.183857	0.184006	-0.000829816	1	0.0000000E+000	13	0.101099	-1.52691e-07	0.0829073
2	1	0	0	0	85.3906	0.238426	0.238801	0.00820656	1	2.03642e-05	13	0.0380002	1.95973e-06	0.2008
2	1	0	0	0	90.8926	0.293445	0.293849	0.0219769	1	0.000102481	13	-0.0222244	6.45789e-06	0.316074
2	1	0	0	0	96.3946	0.348465	0.348926	0.0412562	1	0.000277283	13	-0.0451013	1.43953e-05	0.394027
2	1	0	1	0	101.896	0.403484	0.403991	0.0639752	1	0.000568625	13	-0.0633974	2.58454e-05	0.467388
2	1	0	1	0	107.398	0.458504	0.458787	0.0923096	1	0.000996838	13	-0.0866216	4.23505e-05	0.545409
2	1	0	1	0	112.93	0.513823	0.514162	0.147459	1	0.00163561	12	-0.153725	7.58177e-05	0.667887
2	1	0	1	0	118.432	0.568842	0.569201	0.38335	1	0.00298101	12	-0.623132	0.000218203	1.19233
2	1	0	0	0	123.934	0.623862	0.624136	0.849337	1	0.00626238	12	-0.952054	0.000530101	1.57619
2	1	0	0	0	129.466	0.679181	0.679628	1.66263	1	0.0130324	11	-0.982498	0.00112997	1.66213
2	1	0	0	0	134.968	0.734201	0.734441	2.85881	1	0.0253156	11	-1.00975	0.00209963	1.74419
2	1	0	1	0	140.47	0.789221	0.789566	4.36012	1	0.0450772	11	-1.03397	0.0034426	1.82354
2	1	0	1	0	145.972	0.84424	0.844793	6.03059	1	0.0736273	11	-1.05542	0.0050946	1.90021
2	1	0	1	0	151.474	0.899259	0.899692	7.76087	1	0.111588	11	-1.07602	0.00698239	1.97571
2	1	0	1	0	156.976	0.954279	0.954873	9.38037	1	0.158871	11	-1.09428	0.00895706	2.04915
2	1	0	1	0	162.308	0.992492	0.993132	9.74877	1	0.211725	11	-1.09859	0.00968182	2.09172
2	1	0	0	0	167.81	0.937473	0.938119	6.30044	1	0.255644	11	-1.06371	0.00591056	2.00183
2	1	0	0	0	173.312	0.882453	0.882831	3.53741	1	0.282112	11	-1.02541	0.00312293	1.90824
2	1	0	0	0	178.814	0.827434	0.827824	1.91847	1	0.296749	11	-0.994038	0.00158815	1.82186
2	1	0	1	0	184.316	0.772415	0.772733	0.955744	1	0.304415	11	-0.967863	0.000738534	1.7406
2	1	0	1	0	189.848	0.717095	0.717895	0.407067	1	0.30803	12	-0.946273	0.000292231	1.66417
2	1	0	1	0	195.35	0.662075	0.662637	0.132988	1	0.309415	12	-0.92999	8.81228e-05	1.59263
2	1	0	1	0	200.882	0.606756	0.607101	0.0243914	1	0.309793	13	-0.919387	1.4808e-05	1.52649
2	0	0	1	0	206.384	0.551736	0.552152	-0.0107061	1	0.309811	13	-0.912528	-5.9114e-06	1.46468
2	0	0	0	0	211.886	0.496717	0.49718	-0.0207699	1	0.309716	13	-0.908206	-1.03264e-05	1.40539
2	0	0	0	0	217.388	0.441698	0.441993	-0.0184208	1	0.309604	13	-0.905806	-8.14187e-06	1.3478
2	0	0	0	0	222.89	0.386678	0.386885	-0.0142488	1	0.309514	13	-0.901055	-5.51265e-06	1.28794
2	0	0	1	0	228.392	0.331659	0.332126	-0.0112875	1	0.309446	13	-0.90058	-3.74889e-06	1.23271
2	0	0	1	0	233.894	0.276639	0.277173	-0.00704368	1	0.309391	13	-0.901323	-1.95232e-06	1.1785
2	0	0	1	0	239.396	0.22162	0.222264	-0.00829571	1	0.309346	13	-0.900095	-1.84384e-06	1.12236
2	0	0	1	0	244.897	0.166601	0.167336	-0.0073024	1	0.309304	13	-0.898684	-1.22195e-06	1.06602
2	0	0	0	0	250.399	0.111581	0.11209	-0.00697311	1	0.309264	13	-0.897714	-7.81614e-07	1.0098
2	0	0	0	0	255.901	0.0565617	0.0567458	-0.00651029	1	0.309225	13	-0.896496	-3.69431e-07	0.953241
2	0	0	0	0	261.403	0.0015423	0.0021276	-0.00639168	1	0.30919	13	-0.895564	-1.35989e-08	0.897691
2	0	0	0	1	266.816	0.0525603	0.0535291	-0.00527404	1	0.309159	13	-0.894805	-2.82315e-07	0.948334
2	0	0	0	1	272.318	0.10758	0.107957	-0.00455925	1	0.309133	13	-0.893942	-4.92205e-07	1.0019
2	0	0	0	1	277.82	0.162599	0.162638	-0.00360986	1	0.309111	13	-0.893444	-5.87101e-07	1.05608
2	0	0	1	1	283.182	0.216218	0.216966	-0.00249364	2	0.309096	13	-0.891177	-5.41033e-07	1.10814
2	1	0	1	1	288.684	0.271237	0.271692	-0.00127558	2	0.309087	13	-0.891255	-3.46566e-07	1.16295
2	1	0	1	1	294.186	0.326257	0.326588	0.000298532	2	0.309086	13	-0.891638	9.74972e-08	1.21823
2	1	0	0	1	299.687	0.381276	0.381817	0.00188331	2	0.309092	13	-0.891151	7.19079e-07	1.27297
2	0	0	0	1	305.189	0.436296	0.436515	0.00323311	2	0.309107	13	-0.891221	1.4113e-06	1.32774
2	1	0	0	1	310.691	0.491315	0.492088	0.00670842	2	0.309134	13	-0.891562	3.30114e-06	1.38365
2	1	0	1	1	316.193	0.546334	0.546997	0.0196458	2	0.309197	13	-0.894755	1.07462e-05	1.44175
2	1	0	1	1	321.695	0.601354	0.601931	0.0468707	2	0.309378	13	-0.902528	2.82129e-05	1.50446
2	1	0	1	1	327.227	0.656673	0.657083	0.105786	2	0.30977	12	-0.914245	6.95099e-05	1.57133
2	1	0	1	1	332.729	0.711693	0.712205	0.295298	2	0.310786	12	-0.936115	0.000210312	1.64832
2	1	0	1	1	338.231	0.766713	0.767045	0.712679	2	0.313442	12	-0.960314	0.000546657	1.72736
2	1	0	0	1	343.763	0.822032	0.822002	1.43171	2	0.319222	11	-0.984157	0.00117687	1.80616
2	1	0	0	1	349.265	0.877051	0.877572	2.38483	2	0.329726	11	-1.00574	0.00209286	1.88332
2	1	0	0	1	354.767	0.932071	0.932541	3.0897	2	0.345008	11	-1.01875	0.00288127	1.9513
2	1	0	1	1	360.269	0.98709	0.987185	3.95774	2	0.364132	11	-1.03234	0.00390702	2.01953
2	1	0	1	1	365.621	0.95948	0.959932	2.89161	2	0.38374	11	-1.01705	0.00277575	1.97698
2	1	0	1	1	371.123	0.904461	0.905241	1.55259	2	0.395698	11	-0.990365	0.00140547	1.89561
2	1	0	1	1	376.625	0.849442	0.849907	0.720439	2	0.401724	11	-0.966465	0.000612306	1.81637
2	1	0	1	1	382.157	0.794122	0.794655	0.306349	2	0.404416	12	-0.949715	0.000243442	1.74437
2	1	0	1	1	387.659	0.739102	0.739221	0.114384	2	0.405502	12	-0.939029	8.45551e-05	1.67825
2	1	0	0	1	393.191	0.683783	0.683937	0.0306846	2	0.405865	13	-0.932211	2.09863e-05	1.61615
2	1	0	0	1	398.693	0.628764	0.6294	0.004963	2	0.405944	13	-0.928646	3.12371e-06	1.55805
2	0	0	0	1	404.195	0.573744	0.574064	-0.000223912	2	0.405953	13	-0.926726	-1.2854e-07	1.50079
2	0	0	1	1	409.697	0.518725	0.519127	-0.00161292	2	0.405946	13	-0.925112	-8.3731e-07	1.44424
[...]
2	0	0	1	0	470.129	0.085572	0.0860569	-0.0023662	2	0.405797	13	-0.91425	-2.03628e-07	1.00031
2	1	0	1	0	475.631	0.140591	0.14103	-0.00210471	2	0.405785	13	-0.913465	-2.96829e-07	1.0545
2	1	0	0	0	480.993	0.19421	0.194403	-0.00140498	3	0.405777	13	-0.912853	-2.73132e-07	1.10726
2	1	0	0	0	486.495	0.24923	0.249828	-0.000615169	3	0.405771	13	-0.912289	-1.53686e-07	1.16212
2	1	0	0	0	491.997	0.304249	0.304834	-1.40485e-05	3	0.40577	13	-0.911886	-4.28247e-09	1.21672
2	1	0	1	0	497.498	0.359269	0.359481	0.000199582	3	0.405771	13	-0.911251	7.17458e-08	1.27073
2	1	0	1	0	503	0.414288	0.414681	0.00080862	3	0.405776	13	-0.910642	3.35319e-07	1.32532
2	1	0	1	0	508.502	0.469307	0.469357	0.0016409	3	0.405784	13	-0.910332	7.70167e-07	1.37969
2	1	0	1	0	514.004	0.524327	0.524742	0.00324164	3	0.405797	13	-0.909875	1.70103e-06	1.43462
2	1	0	0	0	519.506	0.579346	0.579805	0.00527983	3	0.405822	13	-0.90939	3.06127e-06	1.4892
2	1	0	0	0	525.008	0.634366	0.634694	0.00840537	3	0.405857	13	-0.909585	5.33484e-06	1.54428
2	1	0	0	0	530.51	0.689385	0.689716	0.0333938	3	0.405953	13	-0.912995	2.30323e-05	1.60271
2	1	0	0	0	536.042	0.744704	0.745374	0.139463	3	0.406377	12	-0.926214	0.000103952	1.67159
2	1	0	1	0	541.544	0.799724	0.800235	0.44805	3	0.407858	12	-0.950179	0.000358546	1.75041
2	1	0	1	0	547.076	0.855043	0.855644	1.11646	3	0.412031	11	-0.978024	0.000955295	1.83367
2	1	0	1	0	552.578	0.910063	0.910498	2.01556	3	0.420569	11	-1.00076	0.00183516	1.91125
2	1	0	1	0	558.08	0.965082	0.965751	3.11476	3	0.434585	11	-1.0208	0.00300809	1.98655
2	1	0	1	0	563.432	0.981488	0.981537	3.32556	3	0.453582	11	-1.02484	0.00326416	2.00638
2	1	0	0	0	568.934	0.926469	0.926535	1.85946	3	0.467589	11	-0.999145	0.00172286	1.92568
2	1	0	0	0	574.436	0.871449	0.871967	0.903337	3	0.474962	11	-0.974704	0.00078768	1.84667
2	1	0	0	0	579.968	0.81613	0.816823	0.389854	3	0.47837	12	-0.955647	0.000318442	1.77247
2	1	0	1	0	585.47	0.761111	0.761889	0.149698	3	0.479776	12	-0.943677	0.000114053	1.70557
2	1	0	1	0	591.002	0.705791	0.705986	0.043129	3	0.480265	13	-0.936291	3.04484e-05	1.64228
2	1	0	1	0	596.504	0.650771	0.651088	0.00793737	3	0.480383	13	-0.932283	5.16793e-06	1.58337
2	1	0	1	0	602.006	0.595752	0.596078	0.000489804	3	0.4804	13	-0.930006	2.91961e-07	1.52608
2	1	0	1	0	607.508	0.540732	0.541164	-0.00135163	3	0.480397	13	-0.928614	-7.31457e-07	1.46978
2	0	0	0	0	613.01	0.485713	0.486233	-0.00203988	3	0.480386	13	-0.927301	-9.91855e-07	1.41353
2	1	0	0	0	618.512	0.430694	0.430956	-0.00174047	3	0.480375	13	-0.926124	-7.50066e-07	1.35708
2	0	0	0	0	624.014	0.375674	0.376496	-0.00160852	3	0.480364	13	-0.925113	-6.05602e-07	1.30161
2	0	0	1	0	629.516	0.320655	0.320869	-0.00169418	3	0.480354	13	-0.923983	-5.43611e-07	1.24485
2	0	0	1	0	635.018	0.265635	0.266046	-0.00193409	3	0.480342	13	-0.923203	-5.14556e-07	1.18925
2	0	0	1	0	640.52	0.210616	0.210626	-0.00212505	3	0.48033	13	-0.92238	-4.47591e-07	1.13301
2	0	0	1	0	646.021	0.155596	0.15618	-0.00232196	3	0.480316	13	-0.921502	-3.62645e-07	1.07768
2	0	0	0	0	651.523	0.100577	0.101227	-0.00254315	3	0.480302	13	-0.920651	-2.57435e-07	1.02188
2	0	0	0	0	657.025	0.0455578	0.0459191	-0.00274903	3	0.480286	13	-0.919583	-1.26233e-07	0.965502
2	0	0	1	1	662.438	0.00854388	0.00856257	-0.00326168	3	0.480269	13	-0.13695	-2.79284e-08	0.145512
2	0	0	0	1	667.94	0.0635642	0.0642412	-0.0026477	3	0.480254	13	-0.0428676	-1.70091e-07	0.107109
2	0	0	0	1	673.442	0.118584	0.118876	-0.0017639	3	0.480242	13	-0.0370838	-2.09686e-07	0.15596
2	1	0	0	1	678.944	0.173603	0.173642	-0.00166472	3	0.480233	13	-0.0336254	-2.89066e-07	0.207267
2	0	0	1	1	679.939	0.183557	0.183892	-0.00300342	3	0.480232	13	-0.0336039	-5.52305e-07	0.217496