Folder: EC-Lab-Processing/Lares Oxides

File: 2024-6-18 FTO blank_KOH9999_CV1_C05.mpt
EC-Lab ASCII FILE
Nb header lines : 60

Cyclic Voltammetry

Run on channel : 5 (SN 39658)
User :
CE vs. WE compliance from -10 V to 10 V
Electrode connection : standard
Potential control : Ewe
Ewe ctrl range : min = -2.50 V, max = 2.50 V
Safety Limits :
	Do not start on E overload
Acquisition started on : 06/18/2024 16:24:45.142
Technique started on : 06/18/2024 16:24:45.142
Loaded Setting File :  C:\Users\sfolkman\OneDrive - New Mexico State University\Folkman Group Folder\Scott\2024-6-18 Titanium blank_KOH9999_CV.mps
Saved on :
	File : 2024-6-18 FTO blank_KOH9999_CV1_C05.mpr
	Directory : C:\Users\sfolkman\OneDrive - New Mexico State University\Folkman Group Folder\Scott\
	Host : 172.24.124.15
Device : VSP (SN 1910)
Address : USB
EC-Lab for windows v11.46 (software)
Internet server v11.40 (firmware)
Command interpretor v11.40 (firmware)
Electrode material : Au/Pd
Initial state :
Electrolyte : NaCl (0.2M)
Comments : Fe(CN)63-/Fe(CN)64- 5.10-3 M
Current amplifier : VSPB-4A
Reference electrode : SCE Saturated Calomel Electrode (0.241 V)
Electrode surface area : 0.001 cm²
Characteristic mass : 0.001 g
Equivalent Weight : 0.000 g/eq.
Density : 0.000 g/cm3
Volume (V) : 0.001 cm³
Cycle Definition : Charge/Discharge alternance
Ei (V)              0.000
vs.                 Eoc
dE/dt               10.000
dE/dt unit          mV/s
E1 (V)              1.000
vs.                 Ref
Step percent        50
N                   10
E range min (V)     -2.500
E range max (V)     2.500
I Range             Auto
I Range min         Unset
I Range max         Unset
I Range init        Unset
Bandwidth           4
E2 (V)              0.000
vs.                 Ref
nc cycles           2
Reverse Scan        1
Ef (V)              0.000
vs.                 Eoc

mode	ox/red	error	control changes	counter inc.	time/s	control/V	Ewe/V	<I>/mA	cycle number	(Q-Qo)/C	I Range	P/W
2	0	0	1	0	0.000000000000000E+000	-0.0818055	-0.0818387	-0.00315224	1	0.0000000E+000	13	2.57975e-07
2	1	0	1	0	2.5557	-0.0562473	-0.0558809	-6.25683e-05	1	2.43211e-07	13	3.49637e-09
2	1	0	1	0	5.1565	-0.0302397	-0.029762	-8.07466e-05	1	5.28769e-07	13	2.40318e-09
2	1	0	1	0	7.7573	-0.00423209	-0.00344388	0.000133639	1	8.46255e-07	13	-4.60235e-10
2	1	0	1	0	10.3582	0.0217766	0.0221812	0.000207457	1	1.19816e-06	13	4.60164e-09
2	1	0	1	0	12.959	0.0477847	0.048057	8.69347e-05	1	1.58411e-06	13	4.17782e-09
2	0	0	1	0	15.5598	0.0737927	0.0744261	0.000254902	1	2.00749e-06	13	1.89714e-08
2	0	0	1	0	18.1606	0.0998008	0.100682	0.000360528	1	2.47126e-06	13	3.62985e-08
2	0	0	1	0	20.7614	0.125809	0.126234	0.000165617	1	2.97577e-06	13	2.09065e-08
2	0	0	1	0	23.3622	0.151817	0.152202	0.000302426	1	3.52229e-06	13	4.60298e-08
2	0	0	1	0	25.963	0.177825	0.178132	0.000363835	1	4.10978e-06	13	6.48107e-08
2	0	0	1	0	28.5638	0.203833	0.204512	0.000159154	1	4.74017e-06	13	3.25488e-08
2	1	0	1	0	31.1646	0.229841	0.230008	0.000165801	1	5.414e-06	13	3.81354e-08
2	1	0	1	0	33.7654	0.255849	0.256522	0.000299099	1	6.13136e-06	13	7.67254e-08
2	1	0	1	0	36.3662	0.281857	0.282158	0.000150007	1	6.89204e-06	13	4.23256e-08
2	1	0	1	0	38.967	0.307865	0.308336	3.07685e-05	1	7.70013e-06	13	9.48706e-09
2	1	0	1	0	41.5678	0.333873	0.334372	6.59808e-05	1	8.56228e-06	13	2.20622e-08
2	1	0	1	0	44.1686	0.359881	0.360662	0.000209631	1	9.48536e-06	13	7.56058e-08
2	1	0	1	0	46.7694	0.385889	0.386518	0.000364069	1	1.0477e-05	13	1.40719e-07
2	1	0	1	0	49.3702	0.411897	0.412405	0.000328201	1	1.15465e-05	13	1.35352e-07
2	1	0	1	0	51.971	0.437906	0.438808	0.000251196	1	1.27046e-05	13	1.10227e-07
2	1	0	1	0	54.5718	0.463914	0.464439	0.000289101	1	1.39686e-05	13	1.3427e-07
2	1	0	1	0	57.1726	0.489922	0.490494	0.000526559	1	1.53748e-05	13	2.58274e-07
2	1	0	1	0	59.7734	0.51593	0.51632	0.000731248	1	1.6993e-05	13	3.77558e-07
2	1	0	1	0	62.3742	0.541938	0.54214	0.000838521	1	1.88832e-05	13	4.54595e-07
2	1	0	1	0	64.975	0.567946	0.568725	0.000848851	1	2.10187e-05	13	4.82763e-07
2	0	0	1	0	67.5758	0.593954	0.594179	0.00104937	1	2.35533e-05	13	6.23513e-07
2	1	0	1	0	70.1766	0.619962	0.619902	0.00274607	1	2.81048e-05	13	1.70229e-06
2	1	0	1	0	72.7774	0.64597	0.646214	0.0103313	1	4.27763e-05	13	6.67622e-06
2	1	0	1	0	75.3782	0.671978	0.672402	0.0340581	1	9.51563e-05	13	2.29007e-05
2	1	0	1	0	77.9791	0.697987	0.698511	0.0881282	1	0.000245878	13	6.15585e-05
2	1	0	1	0	80.6099	0.724294	0.72479	0.180778	1	0.00059226	12	0.000131026
2	1	0	1	0	83.2107	0.750301	0.751168	0.292621	1	0.0012079	12	0.000219808
2	1	0	1	0	85.8115	0.776309	0.776648	0.40951	1	0.00212238	12	0.000318045
2	1	0	0	0	88.4124	0.802318	0.803175	0.527404	1	0.00334161	12	0.000423598
2	1	0	0	0	91.0132	0.828326	0.828603	0.646614	1	0.004868	12	0.000535787
2	1	0	0	0	93.614	0.854334	0.855022	0.790598	1	0.00672825	12	0.000675979
2	1	0	0	0	96.2148	0.880343	0.880858	0.978644	1	0.00901729	12	0.000862047
2	1	0	0	0	98.8456	0.906651	0.907028	1.22818	1	0.0119135	11	0.00111399
2	1	0	0	0	101.446	0.932659	0.933488	1.54314	1	0.0155011	11	0.0014405
2	1	0	0	0	104.047	0.958667	0.959135	1.95003	1	0.0200291	11	0.00187034
2	1	0	0	0	106.648	0.984675	0.985166	2.37267	1	0.0256292	11	0.00233747
2	1	0	0	0	109.139	0.990477	0.991245	2.35324	1	0.0318466	11	0.00233264
2	1	0	0	0	111.74	0.964469	0.964849	1.72422	1	0.0370965	11	0.00166361
2	1	0	0	0	114.341	0.93846	0.939078	1.2334	1	0.04091	11	0.00115826
2	1	0	0	0	116.942	0.912453	0.912945	0.895443	1	0.0436609	11	0.000817491
2	1	0	0	0	119.542	0.886444	0.887057	0.65311	1	0.0456684	11	0.000579346
2	1	0	0	0	122.143	0.860436	0.860779	0.476587	1	0.0471283	11	0.000410236
2	1	0	1	0	124.774	0.834128	0.835011	0.344802	1	0.048202	12	0.000287913
2	1	0	1	0	127.375	0.80812	0.808529	0.250187	1	0.0489724	12	0.000202283
2	1	0	1	0	129.976	0.782113	0.782746	0.181016	1	0.049529	12	0.000141689
2	1	0	1	0	132.577	0.756104	0.756292	0.125039	1	0.0499254	12	9.45661e-05
2	1	0	1	0	135.177	0.730096	0.730489	0.0794537	1	0.0501895	12	5.80401e-05
2	1	0	1	0	137.808	0.703788	0.70433	0.0441219	1	0.0503494	13	3.10763e-05
2	1	0	1	0	140.409	0.67778	0.678355	0.0203284	1	0.0504309	13	1.37898e-05
2	1	0	1	0	143.01	0.651772	0.652185	0.00743094	1	0.0504654	13	4.84635e-06
2	1	0	1	0	145.611	0.625764	0.626142	0.00217889	1	0.050477	13	1.36429e-06
2	1	0	1	0	148.211	0.599756	0.600298	0.000502424	1	0.0504801	13	3.01604e-07
2	1	0	1	0	150.812	0.573748	0.574223	0.000111795	1	0.0504807	13	6.41953e-08
2	1	0	1	0	153.413	0.54774	0.548544	7.99964e-06	1	0.0504807	13	4.38815e-09
2	1	0	1	0	156.014	0.521732	0.522402	-6.57301e-05	1	0.0504806	13	-3.43375e-08
2	1	0	1	0	158.615	0.495723	0.49622	-0.000152493	1	0.0504804	13	-7.56701e-08
2	1	0	1	0	161.215	0.469715	0.469941	-0.000228066	1	0.05048	13	-1.07177e-07
2	1	0	1	0	163.816	0.443707	0.443973	-0.000256993	1	0.0504796	13	-1.14098e-07
2	1	0	1	0	166.417	0.417699	0.417845	-0.000260566	1	0.0504792	13	-1.08876e-07
2	1	0	1	0	169.018	0.391691	0.39221	-0.000255968	1	0.0504788	13	-1.00393e-07
2	1	0	1	0	171.619	0.365683	0.365969	-0.00024283	1	0.0504783	13	-8.88682e-08
2	1	0	1	0	174.219	0.339675	0.340183	-0.000233159	1	0.0504779	13	-7.93168e-08
2	1	0	1	0	176.82	0.313667	0.314134	-0.000229422	1	0.0504775	13	-7.20693e-08
2	1	0	1	0	179.421	0.287659	0.288413	-0.000172038	1	0.050477	13	-4.9618e-08
2	1	0	1	0	182.022	0.261651	0.262079	-0.00013818	1	0.0504765	13	-3.62141e-08
2	1	0	1	0	184.623	0.235643	0.236211	-0.000151987	1	0.050476	13	-3.5901e-08
[...]
2	0	0	0	1	218.344	0.101601	0.10194	0.00022724	2	0.0504714	13	2.31648e-08
2	0	0	0	1	220.944	0.127609	0.128161	0.000169963	2	0.0504716	13	2.17826e-08
2	0	0	0	1	223.545	0.153617	0.15428	0.000130306	2	0.0504719	13	2.01036e-08
2	0	0	0	1	226.146	0.179626	0.179981	0.000110532	2	0.0504722	13	1.98936e-08
2	0	0	0	1	228.747	0.205634	0.205794	9.16709e-05	2	0.0504726	13	1.88654e-08
2	0	0	0	1	231.348	0.231642	0.232013	5.71689e-05	2	0.0504729	13	1.32639e-08
2	0	0	0	1	233.948	0.25765	0.258125	9.83525e-06	2	0.0504733	13	2.53873e-09
2	0	0	0	1	236.549	0.283658	0.283672	-2.90107e-07	2	0.0504737	13	-8.22952e-11
2	0	0	0	1	239.15	0.309666	0.310347	2.79719e-06	2	0.0504741	13	8.681e-10
2	1	0	0	1	241.751	0.335674	0.335918	5.51009e-05	2	0.0504746	13	1.85094e-08
2	1	0	0	1	244.352	0.361682	0.361744	8.11675e-05	2	0.050475	13	2.93619e-08
2	1	0	0	1	246.952	0.38769	0.38752	9.16929e-05	2	0.0504755	13	3.55329e-08
2	1	0	0	1	249.553	0.413698	0.413985	6.89461e-05	2	0.050476	13	2.85426e-08
2	0	0	0	1	252.154	0.439706	0.440158	6.84857e-05	2	0.0504765	13	3.01445e-08
2	0	0	1	1	254.755	0.465715	0.465945	0.00010202	2	0.0504772	13	4.75356e-08
2	0	0	1	1	257.356	0.491723	0.492273	0.000179935	2	0.0504779	13	8.85772e-08
2	0	0	1	1	259.956	0.51773	0.518549	0.000290341	2	0.0504789	13	1.50556e-07
2	0	0	1	1	262.557	0.543738	0.544197	0.000383925	2	0.05048	13	2.0893e-07
2	0	0	1	1	265.158	0.569745	0.569963	0.000435116	2	0.0504812	13	2.48e-07
2	0	0	1	1	267.759	0.595753	0.5964	0.000891245	2	0.0504829	13	5.31538e-07
2	0	0	1	1	270.36	0.621762	0.6219	0.00299097	2	0.0504873	13	1.86009e-06
2	1	0	1	1	272.961	0.647771	0.648586	0.0109435	2	0.0505032	13	7.09781e-06
2	1	0	1	1	275.561	0.673779	0.674185	0.0337487	2	0.0505566	13	2.27528e-05
2	1	0	1	1	278.162	0.699787	0.700692	0.0826755	2	0.0507012	13	5.793e-05
2	1	0	1	1	280.793	0.726095	0.72687	0.163784	2	0.0510187	12	0.00011905
2	1	0	1	1	283.394	0.752103	0.752845	0.266513	2	0.051575	12	0.000200643
2	1	0	1	1	285.995	0.778111	0.778451	0.381487	2	0.0524163	12	0.000296969
2	1	0	1	1	288.595	0.804119	0.804157	0.49541	2	0.0535581	12	0.000398387
2	1	0	1	1	291.196	0.830127	0.830645	0.60838	2	0.0549997	12	0.000505348
2	1	0	1	1	293.797	0.856135	0.856321	0.746339	2	0.0567618	12	0.000639106
2	1	0	1	1	296.398	0.882143	0.88296	0.908711	2	0.0589022	12	0.000802355
2	1	0	1	1	299.029	0.908451	0.90892	1.1212	2	0.0615714	11	0.00101908
2	1	0	1	1	301.629	0.934459	0.93495	1.3854	2	0.0648589	11	0.00129528
2	1	0	1	1	304.23	0.960467	0.961055	1.7325	2	0.068928	11	0.00166503
2	1	0	1	1	306.831	0.986476	0.987369	2.14211	2	0.0739751	11	0.00211505
2	1	0	1	1	309.342	0.988477	0.988754	2.0809	2	0.0796101	11	0.00205749
2	1	0	1	1	311.943	0.962469	0.963113	1.56602	2	0.0843507	11	0.00150825
2	1	0	0	1	314.544	0.93646	0.936807	1.19002	2	0.0879115	11	0.00111482
2	1	0	0	1	317.145	0.910452	0.910797	0.881119	2	0.0905759	11	0.00080252
2	1	0	0	1	319.746	0.884444	0.885105	0.653816	2	0.0925577	11	0.000578696
2	1	0	0	1	322.346	0.858436	0.858828	0.485299	2	0.0940192	11	0.000416788
2	1	0	0	1	324.977	0.832128	0.832788	0.354841	2	0.0951123	12	0.000295507
2	1	0	0	1	327.578	0.80612	0.806581	0.260758	2	0.0959079	12	0.000210322
2	1	0	0	1	330.179	0.780112	0.780217	0.188734	2	0.0964897	12	0.000147253
2	1	0	0	1	332.78	0.754103	0.754323	0.131202	2	0.0969031	12	9.89685e-05
2	1	0	0	1	335.38	0.728095	0.728351	0.0836554	2	0.0971804	12	6.09305e-05
2	1	0	0	1	337.981	0.702087	0.702178	0.0463006	2	0.0973459	12	3.25113e-05
2	1	0	0	1	340.612	0.675779	0.675946	0.0207545	2	0.0974306	13	1.40289e-05
2	1	0	0	1	343.213	0.649771	0.650422	0.0075368	2	0.097465	13	4.9021e-06
2	1	0	1	1	344.059	0.641219	0.640698	0.00433623	2	0.0974703	13	2.77822e-06

File: 2024-6-18 FTO blank_KOH9999_CV_C05.mpt
EC-Lab ASCII FILE
Nb header lines : 65

Potentio Electrochemical Impedance Spectroscopy

Run on channel : 5 (SN 39658)
User :
CE vs. WE compliance from -10 V to 10 V
Electrode connection : standard
Potential control : Ewe
Ewe ctrl range : min = -10.00 V, max = 10.00 V
Safety Limits :
	Do not start on E overload
Acquisition started on : 06/18/2024 16:23:40.482
Technique started on : 06/18/2024 16:23:42.019
Loaded Setting File :  NONE
Saved on :
	File : 2024-6-18 FTO blank_KOH9999_CV_C05.mpr
	Directory : C:\Users\sfolkman\OneDrive - New Mexico State University\Folkman Group Folder\Scott\
	Host : 172.24.124.15
Device : VSP (SN 1910)
Address : USB
EC-Lab for windows v11.46 (software)
Internet server v11.40 (firmware)
Command interpretor v11.40 (firmware)
Electrode material :
Initial state :
Electrolyte :
Comments :
Current amplifier : VSPB-4A
Electrode surface area : 0.001 cm²
Characteristic mass : 0.001 g
Equivalent Weight : 0.000 g/eq.
Density : 0.000 g/cm3
Volume (V) : 0.001 cm³
Cycle Definition : Charge/Discharge alternance
Mode                Single sine
E (V)               0.0000
vs.                 Eoc
tE (h:m:s)          0:00:0.0000
record              0
dI                  0.000
unit dI             mA
dt (s)              0.000
fi                  200.000
unit fi             kHz
ff                  100.000
unit ff             mHz
Nd                  6
Points              per decade
spacing             Logarithmic
Va (mV)             10.0
pw                  0.10
Na                  2
corr                0
E range min (V)     -10.000
E range max (V)     10.000
I Range             Auto
Bandwidth           4
nc cycles           0
goto Ns'            0
nr cycles           0
inc. cycle          0

freq/Hz	Re(Z)/Ohm	-Im(Z)/Ohm	|Z|/Ohm	Phase(Z)/deg	time/s	<Ewe>/V	<I>/mA	Cs/µF	Cp/µF	cycle number	I Range	|Ewe|/V	|I|/A	Ns	(Q-Qo)/mA.h	Re(Y)/Ohm-1	Im(Y)/Ohm-1	|Y|/Ohm-1	Phase(Y)/deg	Re(C)/nF	Im(C)/nF	|C|/nF	Phase(C)/deg	Re(M)	Im(M)	|M|	Phase(M)/deg	Re(Permittivity)	Im(Permittivity)	|Permittivity|	Phase(Permittivity)/deg	Re(Resistivity)/Ohm.cm	Im(Resistivity)/Ohm.cm	|Resistivity|/Ohm.cm	Phase(Resistivity)/deg	Re(Conductivity)/mS/cm	Im(Conductivity)/mS/cm	|Conductivity|/mS/cm	Phase(Conductivity)/deg	Tan(Delta)	Loss Angle(Delta)/deg	dq/mA.h
199998	9.94275	15.9775	18.8186	-58.1062	1.53747	-0.112214	-0.0131828	0.0498063	0.0359029	1	10	0.0107025	0.000568721	0	-3.25012e-06	0.0280758	0.0451165	0.0531389	58.1062	35.9029	22.3422	42.287	-31.8938	0.0000000E+000	0.0000000E+000	0.0000000E+000	31.8938	0.0000000E+000	0.0000000E+000	0.0000000E+000	-31.8938	0.0000000E+000	0.0000000E+000	0.0000000E+000	-58.1062	0.0000000E+000	0.0000000E+000	0.0000000E+000	58.1062	0.622296	58.1062	-3.25012e-06
91291.2	18.2932	9.42674	20.5792	-27.2626	2.7275	-0.11214	-0.0131307	0.18494	0.0388055	1	10	0.0101341	0.000492445	0	-2.0544e-06	0.0431948	0.0222588	0.0485926	27.2626	38.8055	75.3048	84.7153	-62.7373	0.0000000E+000	0.0000000E+000	0.0000000E+000	62.7373	0.0000000E+000	0.0000000E+000	0.0000000E+000	-62.7373	0.0000000E+000	0.0000000E+000	0.0000000E+000	-27.2626	0.0000000E+000	0.0000000E+000	0.0000000E+000	27.2626	1.94057	27.2626	5.80348e-06
41669.8	18.007	3.11306	18.2741	-9.80839	3.61948	-0.112095	-0.0133485	1.22691	0.0356053	1	10	0.0104643	0.000572629	0	-1.20017e-05	0.0539224	0.00932214	0.0547223	9.80839	35.6053	205.953	209.008	-80.1916	0.0000000E+000	0.0000000E+000	0.0000000E+000	80.1916	0.0000000E+000	0.0000000E+000	0.0000000E+000	-80.1916	0.0000000E+000	0.0000000E+000	0.0000000E+000	-9.80839	0.0000000E+000	0.0000000E+000	0.0000000E+000	9.80839	5.78433	9.80839	-5.2137e-06
19020.9	17.303	2.33552	17.4599	-7.68718	4.5115	-0.112109	-0.0131735	3.58266	0.0641042	1	10	0.0102974	0.000589776	0	-1.38456e-05	0.0567593	0.00766123	0.057274	7.68718	64.1042	474.925	479.232	-82.3128	0.0000000E+000	0.0000000E+000	0.0000000E+000	82.3128	0.0000000E+000	0.0000000E+000	0.0000000E+000	-82.3128	0.0000000E+000	0.0000000E+000	0.0000000E+000	-7.68718	0.0000000E+000	0.0000000E+000	0.0000000E+000	7.68718	7.40864	7.68718	1.196e-06
8683.37	17.351	3.1996	17.6435	-10.4482	5.43098	-0.112086	-0.0120661	5.72843	0.18839	1	10	0.0102219	0.000579357	0	-2.58075e-05	0.0557383	0.0102784	0.0566781	10.4482	188.39	1021.61	1038.84	-79.5518	0.0000000E+000	0.0000000E+000	0.0000000E+000	79.5518	0.0000000E+000	0.0000000E+000	0.0000000E+000	-79.5518	0.0000000E+000	0.0000000E+000	0.0000000E+000	-10.4482	0.0000000E+000	0.0000000E+000	0.0000000E+000	10.4482	5.42285	10.4482	-5.61124e-06
3961.2	17.4967	5.9608	18.4842	-18.813	6.54396	-0.112082	-0.0145694	6.74046	0.700962	1	10	0.0106411	0.000575683	0	-2.54574e-05	0.0512099	0.0174462	0.0541001	18.813	700.962	2057.54	2173.66	-71.187	0.0000000E+000	0.0000000E+000	0.0000000E+000	71.187	0.0000000E+000	0.0000000E+000	0.0000000E+000	-71.187	0.0000000E+000	0.0000000E+000	0.0000000E+000	-18.813	0.0000000E+000	0.0000000E+000	0.0000000E+000	18.813	2.9353	18.813	-1.77997e-06
1808.26	17.6968	12.3673	21.59	-34.9475	7.49197	-0.112043	-0.0147332	7.11676	2.33522	1	10	0.0108976	0.000504753	0	-2.45914e-05	0.0379655	0.026532	0.0463177	34.9475	2335.22	3341.55	4076.66	-55.0525	0.0000000E+000	0.0000000E+000	0.0000000E+000	55.0525	0.0000000E+000	0.0000000E+000	0.0000000E+000	-55.0525	0.0000000E+000	0.0000000E+000	0.0000000E+000	-34.9475	0.0000000E+000	0.0000000E+000	0.0000000E+000	34.9475	1.43093	34.9475	4.67948e-07
825.264	18.3158	26.5593	32.2625	-55.409	8.9347	-0.112082	-0.00170795	7.26124	4.92095	1	11	0.0102561	0.000317895	0	-2.96056e-05	0.0175967	0.0255165	0.0309958	55.409	4920.95	3393.59	5977.64	-34.591	0.0000000E+000	0.0000000E+000	0.0000000E+000	34.591	0.0000000E+000	0.0000000E+000	0.0000000E+000	-34.591	0.0000000E+000	0.0000000E+000	0.0000000E+000	-55.409	0.0000000E+000	0.0000000E+000	0.0000000E+000	55.409	0.689621	55.409	-5.20656e-06
377.051	19.7289	56.9976	60.3155	-70.9075	9.88169	-0.112056	-0.00183977	7.40565	6.61331	1	11	0.00954512	0.000158253	0	-2.99852e-05	0.00542307	0.0156675	0.0165795	70.9075	6613.31	2289.1	6998.28	-19.0925	0.0000000E+000	0.0000000E+000	0.0000000E+000	19.0925	0.0000000E+000	0.0000000E+000	0.0000000E+000	-19.0925	0.0000000E+000	0.0000000E+000	0.0000000E+000	-70.9075	0.0000000E+000	0.0000000E+000	0.0000000E+000	70.9075	0.346135	70.9075	4.778e-07
172.037	23.8775	122.469	124.775	-78.9676	10.8244	-0.112086	-0.00168804	7.55391	7.27729	1	11	0.00932863	7.47636e-05	0	-3.0936e-05	0.00153367	0.00786631	0.00801442	78.9676	7277.29	1418.83	7414.31	-11.0324	0.0000000E+000	0.0000000E+000	0.0000000E+000	11.0324	0.0000000E+000	0.0000000E+000	0.0000000E+000	-11.0324	0.0000000E+000	0.0000000E+000	0.0000000E+000	-78.9676	0.0000000E+000	0.0000000E+000	0.0000000E+000	78.9676	0.194967	78.9676	-6.0544e-07
78.5176	34.0317	261.447	263.653	-82.5837	12.0426	-0.112057	-0.000281974	7.75299	7.62382	1	12	0.00939257	3.56248e-05	0	-3.12915e-05	0.000489575	0.00376114	0.00379287	82.5837	7623.82	992.367	7688.13	-7.4163	0.0000000E+000	0.0000000E+000	0.0000000E+000	7.4163	0.0000000E+000	0.0000000E+000	0.0000000E+000	-7.4163	0.0000000E+000	0.0000000E+000	0.0000000E+000	-82.5837	0.0000000E+000	0.0000000E+000	0.0000000E+000	82.5837	0.130167	82.5837	6.77184e-08
35.8372	65.4316	546.082	549.988	-83.1674	12.9951	-0.112089	-0.000229575	8.13259	8.01748	1	12	0.00928095	1.68748e-05	0	-3.11558e-05	0.000216313	0.00180531	0.00181822	83.1674	8017.48	960.657	8074.83	-6.83262	0.0000000E+000	0.0000000E+000	0.0000000E+000	6.83262	0.0000000E+000	0.0000000E+000	0.0000000E+000	-6.83262	0.0000000E+000	0.0000000E+000	0.0000000E+000	-83.1674	0.0000000E+000	0.0000000E+000	0.0000000E+000	83.1674	0.11982	83.1674	2.91087e-08
16.367	163.937	1144.18	1155.86	-81.8462	13.921	-0.112091	-0.000158468	8.4988	8.32784	1	12	0.00926423	8.01498e-06	0	-3.13027e-05	0.000122706	0.000856407	0.000865153	81.8462	8327.84	1193.21	8412.88	-8.15382	0.0000000E+000	0.0000000E+000	0.0000000E+000	8.15382	0.0000000E+000	0.0000000E+000	0.0000000E+000	-8.15382	0.0000000E+000	0.0000000E+000	0.0000000E+000	-81.8462	0.0000000E+000	0.0000000E+000	0.0000000E+000	81.8462	0.143279	81.8462	1.01411e-08
7.46893	371.678	2330.15	2359.6	-80.9372	14.9396	-0.112049	-3.77696e-05	9.14489	8.91798	1	13	0.00926702	3.92736e-06	0	-3.12862e-05	6.67558e-05	0.000418509	0.0004238	80.9372	8917.99	1422.49	9030.72	-9.06282	0.0000000E+000	0.0000000E+000	0.0000000E+000	9.06282	0.0000000E+000	0.0000000E+000	0.0000000E+000	-9.06282	0.0000000E+000	0.0000000E+000	0.0000000E+000	-80.9372	0.0000000E+000	0.0000000E+000	0.0000000E+000	80.9372	0.159509	80.9372	-2.55065e-08
3.4086	778.415	4613.1	4678.32	-80.4221	16.0832	-0.112064	-0.000103362	10.1217	9.84144	1	13	0.00925599	1.97849e-06	0	-3.13056e-05	3.55658e-05	0.000210772	0.000213752	80.4221	9841.44	1660.64	9980.56	-9.57787	0.0000000E+000	0.0000000E+000	0.0000000E+000	9.57787	0.0000000E+000	0.0000000E+000	0.0000000E+000	-9.57787	0.0000000E+000	0.0000000E+000	0.0000000E+000	-80.4221	0.0000000E+000	0.0000000E+000	0.0000000E+000	80.4221	0.16874	80.4221	-3.93609e-08
1.55627	1469.39	9799.37	9908.92	-81.4722	32.0515	-0.112052	-2.09422e-05	10.436	10.2066	1	13	0.0104137	1.05094e-06	0	-3.12152e-05	1.49653e-05	9.98034e-05	0.000100919	81.4722	10206.6	1530.45	10320.7	-8.52782	0.0000000E+000	0.0000000E+000	0.0000000E+000	8.52782	0.0000000E+000	0.0000000E+000	0.0000000E+000	-8.52782	0.0000000E+000	0.0000000E+000	0.0000000E+000	-81.4722	0.0000000E+000	0.0000000E+000	0.0000000E+000	81.4722	0.149947	81.4722	3.36105e-08