Folder: EC-Lab-Processing/Lares Oxides (part 7)

File: 2024-6-21 Co80Fe20Ox on FTO_1_00mg_01_PEIS_C05.mpt
EC-Lab ASCII FILE
Nb header lines : 65

Potentio Electrochemical Impedance Spectroscopy

Run on channel : 5 (SN 39658)
User :
CE vs. WE compliance from -10 V to 10 V
Electrode connection : standard
Potential control : Ewe
Ewe ctrl range : min = -2.50 V, max = 2.50 V
Safety Limits :
	Do not start on E overload
Acquisition started on : 06/21/2024 09:40:48.362
Technique started on : 06/21/2024 09:40:49.899
Loaded Setting File :  NONE
Saved on :
	File : 2024-6-21 Co80Fe20Ox on FTO_1_00mg_01_PEIS_C05.mpr
	Directory : C:\Users\sfolkman\OneDrive - New Mexico State University\Folkman Group Folder\Scott\
	Host : 172.24.124.15
Device : VSP (SN 1910)
Address : USB
EC-Lab for windows v11.46 (software)
Internet server v11.40 (firmware)
Command interpretor v11.40 (firmware)
Electrode material :
Initial state :
Electrolyte :
Comments :
Current amplifier : VSPB-4A
Electrode surface area : 0.001 cm²
Characteristic mass : 0.001 g
Equivalent Weight : 0.000 g/eq.
Density : 0.000 g/cm3
Volume (V) : 0.001 cm³
Cycle Definition : Charge/Discharge alternance
Mode                Single sine
E (V)               0.0000
vs.                 Eoc
tE (h:m:s)          0:00:0.0000
record              0
dI                  0.000
unit dI             mA
dt (s)              0.000
fi                  200.000
unit fi             kHz
ff                  100.000
unit ff             mHz
Nd                  6
Points              per decade
spacing             Logarithmic
Va (mV)             10.0
pw                  0.10
Na                  2
corr                0
E range min (V)     -2.500
E range max (V)     2.500
I Range             Auto
Bandwidth           4
nc cycles           0
goto Ns'            0
nr cycles           0
inc. cycle          0

freq/Hz	Re(Z)/Ohm	-Im(Z)/Ohm	|Z|/Ohm	Phase(Z)/deg	time/s	<Ewe>/V	<I>/mA	Cs/µF	Cp/µF	cycle number	I Range	|Ewe|/V	|I|/A	Ns	(Q-Qo)/mA.h	Re(Y)/Ohm-1	Im(Y)/Ohm-1	|Y|/Ohm-1	Phase(Y)/deg	Re(C)/nF	Im(C)/nF	|C|/nF	Phase(C)/deg	Re(M)	Im(M)	|M|	Phase(M)/deg	Re(Permittivity)	Im(Permittivity)	|Permittivity|	Phase(Permittivity)/deg	Re(Resistivity)/Ohm.cm	Im(Resistivity)/Ohm.cm	|Resistivity|/Ohm.cm	Phase(Resistivity)/deg	Re(Conductivity)/mS/cm	Im(Conductivity)/mS/cm	|Conductivity|/mS/cm	Phase(Conductivity)/deg	Tan(Delta)	Loss Angle(Delta)/deg	dq/mA.h
199998	7.27317	13.7002	15.5111	-62.037	1.53748	0.0625003	-0.0123918	0.0580856	0.0453144	1	10	0.00995296	0.000641668	0	-2.1805e-06	0.0302301	0.0569432	0.0644701	62.037	45.3144	24.0566	51.3041	-27.963	0.0000000E+000	0.0000000E+000	0.0000000E+000	27.963	0.0000000E+000	0.0000000E+000	0.0000000E+000	-27.963	0.0000000E+000	0.0000000E+000	0.0000000E+000	-62.037	0.0000000E+000	0.0000000E+000	0.0000000E+000	62.037	0.530882	62.037	-2.1805e-06
91291.2	13.0037	8.85004	15.7295	-34.2385	2.72749	0.0625786	-0.0122634	0.196991	0.0623598	1	10	0.010107	0.000642547	0	-7.65998e-06	0.0525574	0.0357695	0.0635747	34.2385	62.3598	91.6273	110.835	-55.7615	0.0000000E+000	0.0000000E+000	0.0000000E+000	55.7615	0.0000000E+000	0.0000000E+000	0.0000000E+000	-55.7615	0.0000000E+000	0.0000000E+000	0.0000000E+000	-34.2385	0.0000000E+000	0.0000000E+000	0.0000000E+000	34.2385	1.46933	34.2385	3.17129e-06
41669.8	14.3264	4.12637	14.9088	-16.0678	3.61949	0.0626023	-0.0121945	0.925617	0.0709057	1	10	0.0105453	0.000707317	0	-6.73423e-07	0.0644542	0.0185645	0.0670744	16.0678	70.9057	246.179	256.187	-73.9323	0.0000000E+000	0.0000000E+000	0.0000000E+000	73.9323	0.0000000E+000	0.0000000E+000	0.0000000E+000	-73.9323	0.0000000E+000	0.0000000E+000	0.0000000E+000	-16.0678	0.0000000E+000	0.0000000E+000	0.0000000E+000	16.0678	3.47191	16.0678	3.52489e-06
19020.9	14.5029	3.24826	14.8622	-12.6244	4.51149	0.0626145	-0.0116622	2.57595	0.123047	1	10	0.0101911	0.000685707	0	-6.52302e-06	0.0656581	0.0147056	0.0672847	12.6244	123.047	549.385	562.996	-77.3756	0.0000000E+000	0.0000000E+000	0.0000000E+000	77.3756	0.0000000E+000	0.0000000E+000	0.0000000E+000	-77.3756	0.0000000E+000	0.0000000E+000	0.0000000E+000	-12.6244	0.0000000E+000	0.0000000E+000	0.0000000E+000	12.6244	4.46482	12.6244	-3.79425e-06
8683.37	15.2309	3.68923	15.6714	-13.6159	5.43099	0.0626482	-0.0106925	4.96816	0.275331	1	10	0.010192	0.000650358	0	-1.35446e-05	0.0620173	0.0150218	0.0638107	13.6159	275.331	1136.7	1169.57	-76.3841	0.0000000E+000	0.0000000E+000	0.0000000E+000	76.3841	0.0000000E+000	0.0000000E+000	0.0000000E+000	-76.3841	0.0000000E+000	0.0000000E+000	0.0000000E+000	-13.6159	0.0000000E+000	0.0000000E+000	0.0000000E+000	13.6159	4.12848	13.6159	-1.21727e-06
3961.2	15.9049	5.48912	16.8255	-19.0406	6.54395	0.062627	-0.0132908	7.31966	0.779041	1	10	0.0106075	0.000630444	0	-2.00242e-05	0.0561818	0.0193895	0.0594336	19.0406	779.041	2257.3	2387.95	-70.9594	0.0000000E+000	0.0000000E+000	0.0000000E+000	70.9594	0.0000000E+000	0.0000000E+000	0.0000000E+000	-70.9594	0.0000000E+000	0.0000000E+000	0.0000000E+000	-19.0406	0.0000000E+000	0.0000000E+000	0.0000000E+000	19.0406	2.89754	19.0406	1.14579e-06
1808.26	16.4849	10.2014	19.3861	-31.7507	7.49194	0.0626332	-0.0133112	8.62773	2.38912	1	10	0.0108602	0.000560204	0	-2.22685e-05	0.0438637	0.0271444	0.0515833	31.7507	2389.12	3860.67	4540.12	-58.2493	0.0000000E+000	0.0000000E+000	0.0000000E+000	58.2493	0.0000000E+000	0.0000000E+000	0.0000000E+000	-58.2493	0.0000000E+000	0.0000000E+000	0.0000000E+000	-31.7507	0.0000000E+000	0.0000000E+000	0.0000000E+000	31.7507	1.61594	31.7507	-2.92858e-06
825.264	17.5294	20.7138	27.1356	-49.7599	8.43868	0.0626337	-0.013408	9.3104	5.42511	1	10	0.0107865	0.000397503	0	-2.60572e-05	0.0238061	0.0281308	0.036852	49.7599	5425.11	4591.09	7107.04	-40.2401	0.0000000E+000	0.0000000E+000	0.0000000E+000	40.2401	0.0000000E+000	0.0000000E+000	0.0000000E+000	-40.2401	0.0000000E+000	0.0000000E+000	0.0000000E+000	-49.7599	0.0000000E+000	0.0000000E+000	0.0000000E+000	49.7599	0.846267	49.7599	-2.97822e-06
377.051	20.3344	43.2605	47.8012	-64.8243	9.88367	0.0626418	-0.00177591	9.75728	7.99159	1	11	0.00985389	0.000206143	0	-2.94632e-05	0.00889925	0.0189327	0.02092	64.8243	7991.59	3756.41	8830.41	-25.1757	0.0000000E+000	0.0000000E+000	0.0000000E+000	25.1757	0.0000000E+000	0.0000000E+000	0.0000000E+000	-25.1757	0.0000000E+000	0.0000000E+000	0.0000000E+000	-64.8243	0.0000000E+000	0.0000000E+000	0.0000000E+000	64.8243	0.470046	64.8243	-3.45374e-07
172.037	27.6624	89.2912	93.478	-72.787	10.8264	0.0626275	-0.00171652	10.3607	9.45341	1	11	0.00960461	0.000102747	0	-2.86934e-05	0.00316571	0.0102186	0.0106977	72.787	9453.41	2928.67	9896.67	-17.213	0.0000000E+000	0.0000000E+000	0.0000000E+000	17.213	0.0000000E+000	0.0000000E+000	0.0000000E+000	-17.213	0.0000000E+000	0.0000000E+000	0.0000000E+000	-72.787	0.0000000E+000	0.0000000E+000	0.0000000E+000	72.787	0.3098	72.787	-2.21702e-07
78.5176	45.3163	180.589	186.188	-75.9133	11.7775	0.0626406	-0.00172211	11.2243	10.5594	1	11	0.00955244	5.13052e-05	0	-2.86789e-05	0.00130722	0.00520939	0.0053709	75.9133	10559.4	2649.73	10886.8	-14.0867	0.0000000E+000	0.0000000E+000	0.0000000E+000	14.0867	0.0000000E+000	0.0000000E+000	0.0000000E+000	-14.0867	0.0000000E+000	0.0000000E+000	0.0000000E+000	-75.9133	0.0000000E+000	0.0000000E+000	0.0000000E+000	75.9133	0.250935	75.9133	-7.64353e-08
[...]
16.367	177.991	699.919	722.196	-75.732	13.926	0.0626704	-0.000176617	13.8933	13.0494	1	12	0.0095151	1.31752e-05	0	-2.91912e-05	0.000341261	0.00134195	0.00138467	75.732	13049.4	3318.48	13464.7	-14.268	0.0000000E+000	0.0000000E+000	0.0000000E+000	14.268	0.0000000E+000	0.0000000E+000	0.0000000E+000	-14.268	0.0000000E+000	0.0000000E+000	0.0000000E+000	-75.732	0.0000000E+000	0.0000000E+000	0.0000000E+000	75.732	0.254302	75.732	-1.32911e-07
7.46893	374.536	1346.33	1397.45	-74.4539	14.9026	0.0626273	-1.00566e-05	15.8274	14.6905	1	13	0.00956046	6.84134e-06	0	-2.92798e-05	0.000191786	0.000689407	0.000715587	74.4539	14690.5	4086.76	15248.4	-15.5461	0.0000000E+000	0.0000000E+000	0.0000000E+000	15.5461	0.0000000E+000	0.0000000E+000	0.0000000E+000	-15.5461	0.0000000E+000	0.0000000E+000	0.0000000E+000	-74.4539	0.0000000E+000	0.0000000E+000	0.0000000E+000	74.4539	0.27819	74.4539	-1.10362e-07
3.4086	789.849	2574.97	2693.39	-72.9471	16.0452	0.0626226	9.85278e-05	18.1331	16.5737	1	13	0.00953489	3.54011e-06	0	-2.91794e-05	0.000108879	0.000354956	0.000371279	72.9471	16573.7	5083.83	17335.9	-17.0529	0.0000000E+000	0.0000000E+000	0.0000000E+000	17.0529	0.0000000E+000	0.0000000E+000	0.0000000E+000	-17.0529	0.0000000E+000	0.0000000E+000	0.0000000E+000	-72.9471	0.0000000E+000	0.0000000E+000	0.0000000E+000	72.9471	0.306741	72.9471	1.87259e-08
1.55627	1484.06	4762.37	4988.25	-72.6919	19.1066	0.0626581	-3.15255e-05	21.4739	19.5732	1	14	0.00954153	1.9128e-06	0	-2.92415e-05	5.96423e-05	0.000191393	0.000200471	72.6919	19573.2	6099.41	20501.5	-17.3081	0.0000000E+000	0.0000000E+000	0.0000000E+000	17.3081	0.0000000E+000	0.0000000E+000	0.0000000E+000	-17.3081	0.0000000E+000	0.0000000E+000	0.0000000E+000	-72.6919	0.0000000E+000	0.0000000E+000	0.0000000E+000	72.6919	0.311621	72.6919	-8.33959e-09
0.710357	3217.08	8728.22	9302.22	-69.7669	24.1521	0.0626338	4.04323e-05	25.6696	22.5993	1	14	0.00951674	1.02306e-06	0	-2.91787e-05	3.71782e-05	0.000100868	0.000107501	69.7669	22599.3	8329.75	24085.6	-20.2331	0.0000000E+000	0.0000000E+000	0.0000000E+000	20.2331	0.0000000E+000	0.0000000E+000	0.0000000E+000	-20.2331	0.0000000E+000	0.0000000E+000	0.0000000E+000	-69.7669	0.0000000E+000	0.0000000E+000	0.0000000E+000	69.7669	0.368584	69.7669	5.26126e-08
0.324439	6358.13	16206.9	17409.5	-68.5794	35.0902	0.0626303	-6.4554e-06	30.2682	26.2311	1	14	0.00952335	5.47021e-07	0	-2.91102e-05	2.09778e-05	5.34724e-05	5.74401e-05	68.5794	26231.1	10290.7	28177.4	-21.4206	0.0000000E+000	0.0000000E+000	0.0000000E+000	21.4206	0.0000000E+000	0.0000000E+000	0.0000000E+000	-21.4206	0.0000000E+000	0.0000000E+000	0.0000000E+000	-68.5794	0.0000000E+000	0.0000000E+000	0.0000000E+000	68.5794	0.39231	68.5794	1.54918e-08
0.147897	13142.4	28416.2	31308.2	-65.1797	58.9863	0.0626322	-1.09396e-05	37.87	31.1969	1	14	0.00952557	3.04252e-07	0	-2.93131e-05	1.34078e-05	2.89901e-05	3.19405e-05	65.1797	31196.9	14428.4	34371.9	-24.8203	0.0000000E+000	0.0000000E+000	0.0000000E+000	24.8203	0.0000000E+000	0.0000000E+000	0.0000000E+000	-24.8203	0.0000000E+000	0.0000000E+000	0.0000000E+000	-65.1797	0.0000000E+000	0.0000000E+000	0.0000000E+000	65.1797	0.462495	65.1797	-1.14508e-07
0.0999041	19848.9	37241.9	42201.1	-61.9437	80.0612	0.0626376	-1.7044e-05	42.7765	33.3135	1	14	0.00952182	2.25629e-07	0	-2.93745e-05	1.11452e-05	2.09114e-05	2.3696e-05	61.9437	33313.5	17755.1	37749.6	-28.0563	0.0000000E+000	0.0000000E+000	0.0000000E+000	28.0563	0.0000000E+000	0.0000000E+000	0.0000000E+000	-28.0563	0.0000000E+000	0.0000000E+000	0.0000000E+000	-61.9437	0.0000000E+000	0.0000000E+000	0.0000000E+000	61.9437	0.532971	61.9437	-6.13869e-08

File: 2024-6-21 Co80Fe20Ox on FTO_1_00mg_02_CV_C05.mpt
EC-Lab ASCII FILE
Nb header lines : 59

Cyclic Voltammetry

Run on channel : 5 (SN 39658)
User :
CE vs. WE compliance from -10 V to 10 V
Electrode connection : standard
Potential control : Ewe
Ewe ctrl range : min = -2.50 V, max = 2.50 V
Safety Limits :
	Do not start on E overload
Acquisition started on : 06/21/2024 09:40:48.362
Technique started on : 06/21/2024 09:42:08.579
Loaded Setting File :  NONE
Saved on :
	File : 2024-6-21 Co80Fe20Ox on FTO_1_00mg_02_CV_C05.mpr
	Directory : C:\Users\sfolkman\OneDrive - New Mexico State University\Folkman Group Folder\Scott\
	Host : 172.24.124.15
Device : VSP (SN 1910)
Address : USB
EC-Lab for windows v11.46 (software)
Internet server v11.40 (firmware)
Command interpretor v11.40 (firmware)
Electrode material :
Initial state :
Electrolyte :
Comments :
Current amplifier : VSPB-4A
Electrode surface area : 0.001 cm²
Characteristic mass : 0.001 g
Equivalent Weight : 0.000 g/eq.
Density : 0.000 g/cm3
Volume (V) : 0.001 cm³
Cycle Definition : Charge/Discharge alternance
Ei (V)              0.000
vs.                 Eoc
dE/dt               10.000
dE/dt unit          mV/s
E1 (V)              1.000
vs.                 Ref
Step percent        50
N                   10
E range min (V)     -2.500
E range max (V)     2.500
I Range             Auto
I Range min         Unset
I Range max         Unset
I Range init        Unset
Bandwidth           4
E2 (V)              0.000
vs.                 Ref
nc cycles           2
Reverse Scan        1
Ef (V)              0.000
vs.                 Eoc

mode	ox/red	error	control changes	counter inc.	time/s	control/V	Ewe/V	<I>/mA	cycle number	(Q-Qo)/C	I Range	P/W
2	0	0	0	0	80.2168	0.0624392	0.0627412	-0.00525672	1	0.0000000E+000	13	-3.29813e-07
2	1	0	0	0	84.573	0.106003	0.106635	0.000687058	1	2.30873e-06	13	7.32641e-08
2	0	0	1	0	88.9744	0.150016	0.150156	0.00129171	1	6.73236e-06	13	1.93958e-07
2	0	0	0	0	93.3758	0.19403	0.194436	0.00239984	1	1.44947e-05	13	4.66615e-07
2	0	0	1	0	97.7772	0.238044	0.238412	0.00397842	1	2.7925e-05	13	9.48504e-07
2	0	0	0	0	102.179	0.282057	0.282556	0.00656384	1	5.11567e-05	13	1.85465e-06
2	1	0	0	0	106.58	0.326071	0.32633	0.00967339	1	8.78438e-05	13	3.15671e-06
2	1	0	1	0	110.981	0.370084	0.370322	0.0136818	1	0.000142088	13	5.06665e-06
2	1	0	0	0	115.413	0.414398	0.414758	0.0199493	1	0.000220232	12	8.27413e-06
2	1	0	1	0	119.814	0.458412	0.45907	0.0311174	1	0.0003362	12	1.42851e-05
2	1	0	0	0	124.215	0.502426	0.503004	0.0555037	1	0.000524217	12	2.79186e-05
2	1	0	1	0	128.617	0.546438	0.54694	0.116215	1	0.000883252	12	6.35626e-05
2	1	0	1	0	133.018	0.590453	0.590754	0.258463	1	0.00166496	12	0.000152688
2	1	0	0	0	137.419	0.634466	0.63492	0.589781	1	0.00342764	12	0.000374464
2	1	0	1	0	141.851	0.67878	0.679243	1.41201	1	0.00762685	11	0.000959101
2	1	0	0	0	146.252	0.722794	0.723157	2.87386	1	0.0168648	11	0.00207825
2	1	0	1	0	150.654	0.766807	0.767366	4.75691	1	0.033565	11	0.00365029
2	1	0	1	0	155.055	0.81082	0.811352	6.86224	1	0.0590958	11	0.00556769
2	1	0	0	0	159.456	0.854835	0.855352	9.08658	1	0.0941767	11	0.00777222
2	1	0	1	0	163.888	0.899148	0.899617	11.3802	1	0.139534	10	0.0102378
2	1	0	0	0	168.289	0.943162	0.943694	13.6711	1	0.19469	10	0.0129014
2	1	0	1	0	172.69	0.987176	0.987786	15.8605	1	0.259743	10	0.0156667
2	1	0	0	0	176.932	0.97047	0.970836	14.5478	1	0.326346	10	0.0141235
2	1	0	1	0	181.334	0.926457	0.92688	11.8277	1	0.384315	10	0.0109628
2	1	0	1	0	185.735	0.882443	0.882861	9.32361	1	0.430785	10	0.00823145
2	1	0	0	0	190.136	0.83843	0.838986	7.02883	1	0.46668	10	0.00589709
2	1	0	1	0	194.538	0.794416	0.794898	4.95361	1	0.492959	10	0.00393761
2	1	0	0	0	198.969	0.750102	0.750845	3.13392	1	0.510775	11	0.00235308
2	1	0	1	0	203.37	0.706089	0.706515	1.6329	1	0.521115	11	0.00115367
2	1	0	1	0	207.772	0.662075	0.662562	0.60936	1	0.525843	11	0.000403739
2	1	0	0	0	212.203	0.617761	0.618151	0.124031	1	0.527287	12	7.66702e-05
2	1	0	1	0	216.604	0.573748	0.574377	-0.016913	1	0.527451	12	-9.7144e-06
2	0	0	0	0	221.006	0.529734	0.530461	-0.0437257	1	0.527296	12	-2.31947e-05
2	0	0	1	0	225.407	0.48572	0.486153	-0.0400129	1	0.527103	12	-1.94524e-05
2	0	0	0	0	229.809	0.441707	0.442321	-0.031107	1	0.526941	12	-1.37593e-05
2	0	0	1	0	234.21	0.397693	0.397964	-0.0234866	1	0.526817	12	-9.34683e-06
2	0	0	1	0	238.611	0.353679	0.354078	-0.0184731	1	0.526722	12	-6.54091e-06
2	0	0	0	0	243.013	0.309666	0.309971	-0.0149338	1	0.526647	12	-4.62904e-06
2	0	0	1	0	247.444	0.265352	0.265977	-0.0121589	1	0.526585	13	-3.23398e-06
2	0	0	0	0	251.845	0.221338	0.221661	-0.0107244	1	0.526533	13	-2.37718e-06
2	0	0	1	0	256.247	0.177325	0.177691	-0.00951159	1	0.526488	13	-1.69012e-06
2	0	0	1	0	260.648	0.133311	0.133682	-0.00907087	1	0.526447	13	-1.21261e-06
2	0	0	0	0	265.049	0.0892976	0.0897225	-0.00842451	1	0.526408	13	-7.55868e-07
2	0	0	1	0	269.451	0.0452839	0.0459171	-0.00764285	1	0.526373	13	-3.50938e-07
2	0	0	0	0	273.852	0.00127028	0.00168425	-0.00700017	1	0.526341	13	-1.17901e-08
2	0	0	1	1	278.134	0.0415828	0.0418252	-0.00522493	1	0.526317	13	-2.18533e-07
2	0	0	0	1	282.355	0.0837958	0.0844295	-0.00411937	2	0.526297	13	-3.47796e-07
2	0	0	1	1	286.757	0.127809	0.128532	-0.00339941	2	0.526281	13	-4.36933e-07
2	0	0	1	1	291.158	0.171823	0.172323	-0.00311935	2	0.526267	13	-5.37535e-07
2	0	0	0	1	295.559	0.215837	0.21647	-0.00260782	2	0.526255	13	-5.64516e-07
2	1	0	1	1	299.961	0.25985	0.260358	-0.00220074	2	0.526246	13	-5.72982e-07
2	1	0	0	1	304.362	0.303864	0.304388	-0.00148983	2	0.52624	13	-4.53487e-07
2	1	0	1	1	308.764	0.347878	0.34823	-0.000795482	2	0.526238	13	-2.77011e-07
2	1	0	0	1	313.165	0.391891	0.392156	0.000504322	2	0.526239	13	1.97773e-07
2	1	0	1	1	317.566	0.435906	0.43632	0.00268948	2	0.526248	13	1.17348e-06
2	1	0	1	1	321.983	0.480069	0.480248	0.00782226	2	0.526272	13	3.75662e-06
2	1	0	0	1	326.399	0.524232	0.524825	0.0204636	2	0.526333	12	1.07398e-05
2	1	0	1	1	330.8	0.568246	0.568746	0.0552576	2	0.526496	12	3.14276e-05
2	1	0	0	1	335.202	0.61226	0.612624	0.1287	2	0.526886	12	7.88448e-05
2	1	0	1	1	339.603	0.656273	0.656849	0.34612	2	0.527834	12	0.000227349
2	1	0	1	1	344.004	0.700287	0.700872	1.01971	2	0.530626	12	0.000714683
2	1	0	0	1	348.436	0.744601	0.745186	2.25891	2	0.537714	11	0.00168331
2	1	0	1	1	352.837	0.788614	0.78922	3.87095	2	0.551109	11	0.00305503
2	1	0	0	1	357.239	0.832628	0.833053	5.66407	2	0.572057	11	0.00471847
2	1	0	1	1	361.64	0.876641	0.876946	7.49816	2	0.601028	11	0.00657549
2	1	0	0	1	366.041	0.920655	0.921178	9.28876	2	0.637998	11	0.0085566
2	1	0	1	1	370.473	0.964969	0.965504	10.9498	2	0.682872	10	0.0105721
2	1	0	1	1	374.734	0.992477	0.993043	11.8763	2	0.732821	10	0.0117936
2	1	0	0	1	379.136	0.948464	0.948998	9.50319	2	0.779691	10	0.00901851
2	1	0	1	1	383.537	0.90445	0.905052	7.35885	2	0.816871	10	0.00666015
2	1	0	0	1	387.939	0.860436	0.860997	5.32274	2	0.844703	10	0.00458287
2	1	0	1	1	392.37	0.816123	0.816692	3.4783	2	0.864114	11	0.0028407
2	1	0	1	1	396.771	0.772109	0.772727	1.92674	2	0.875879	11	0.00148884
2	1	0	0	1	401.173	0.728095	0.728648	0.800562	2	0.881701	11	0.000583328
2	1	0	1	1	405.604	0.683782	0.684013	0.221572	2	0.88376	12	0.000151558
2	1	0	0	1	410.005	0.639768	0.640276	0.0427961	2	0.884249	12	2.74013e-05
2	1	0	1	1	414.407	0.595754	0.59603	0.00199921	2	0.884324	12	1.19159e-06
2	1	0	0	1	418.808	0.551741	0.552168	-0.00530843	2	0.884313	12	-2.93114e-06
[...]
2	1	0	1	1	467.253	0.0672907	0.0679482	-0.00201795	2	0.884158	13	-1.37116e-07
2	1	0	0	1	471.655	0.0232771	0.0239137	-0.00195192	2	0.88415	13	-4.66777e-08
2	1	0	1	0	475.936	0.019576	0.0199405	-0.00132893	2	0.884143	13	-2.64995e-08
2	0	0	1	0	480.203	0.0622392	0.0617864	-0.00542892	3	0.884139	13	-3.35433e-07
2	0	0	0	0	484.559	0.105803	0.10615	-0.000327578	3	0.884136	13	-3.47723e-08
2	0	0	1	0	488.96	0.149816	0.150344	-0.000173082	3	0.884135	13	-2.60219e-08
2	0	0	0	0	493.362	0.19383	0.194015	7.31571e-06	3	0.884135	13	1.41936e-09
2	0	0	1	0	497.763	0.237844	0.238391	6.76767e-05	3	0.884135	13	1.61335e-08
2	0	0	1	0	502.164	0.281856	0.282327	0.000245244	3	0.884137	13	6.92389e-08
2	1	0	0	0	506.566	0.325871	0.326513	0.000380725	3	0.88414	13	1.24312e-07
2	1	0	1	0	510.967	0.369884	0.370259	0.000328904	3	0.884144	13	1.2178e-07
2	1	0	0	0	515.369	0.413898	0.414192	0.000281313	3	0.884148	13	1.16518e-07
2	1	0	1	0	519.77	0.457912	0.45834	0.000591156	3	0.884155	13	2.7095e-07
2	1	0	0	0	524.171	0.501925	0.502349	0.00152293	3	0.884164	13	7.65041e-07
2	1	0	1	0	528.603	0.546239	0.546746	0.00431212	3	0.88418	12	2.35763e-06
2	1	0	1	0	533.004	0.590253	0.59051	0.0104844	3	0.884215	12	6.19111e-06
2	1	0	0	0	537.405	0.634266	0.634492	0.026395	3	0.884292	12	1.67474e-05
2	1	0	1	0	541.807	0.67828	0.678748	0.104486	3	0.884536	12	7.09193e-05
2	1	0	0	0	546.208	0.722294	0.722607	0.439655	3	0.885588	12	0.000317698
2	1	0	1	0	550.64	0.766607	0.767008	1.30029	3	0.889238	11	0.000997331
2	1	0	1	0	555.041	0.81062	0.811187	2.65391	3	0.897804	11	0.00215282
2	1	0	0	0	559.442	0.854635	0.855099	4.33785	3	0.913112	11	0.00370929
2	1	0	1	0	563.844	0.898648	0.899142	6.21941	3	0.936307	11	0.00559213
2	1	0	0	0	568.245	0.942662	0.942998	8.18086	3	0.968003	11	0.00771453
2	1	0	1	0	572.646	0.986676	0.987278	10.1538	3	1.00836	11	0.0100246
2	1	0	0	0	576.938	0.97047	0.970954	9.19883	3	1.0518	11	0.00893165
2	1	0	1	0	581.339	0.926457	0.926975	7.17619	3	1.08808	11	0.00665215
2	1	0	1	0	585.741	0.882443	0.883053	5.11582	3	1.11504	11	0.00451754
2	1	0	0	0	590.142	0.83843	0.839127	3.25664	3	1.13336	11	0.00273273
2	1	0	1	0	594.544	0.794416	0.794927	1.70804	3	1.14415	11	0.00135777
2	1	0	0	0	598.945	0.750402	0.750663	0.657595	3	1.14913	11	0.000493633
2	1	0	1	0	603.376	0.706089	0.706541	0.177118	3	1.1508	12	0.000125141
2	1	0	1	0	607.778	0.662075	0.662845	0.0358418	3	1.15119	12	2.37576e-05
2	1	0	0	0	612.179	0.618061	0.618466	0.00469477	3	1.15126	12	2.90356e-06
2	1	0	1	0	616.58	0.574048	0.574573	-0.00102698	3	1.15127	12	-5.90077e-07
2	1	0	0	0	620.982	0.530034	0.530487	-0.0023639	3	1.15126	12	-1.25402e-06
2	1	0	1	0	625.383	0.48602	0.486508	-0.00235307	3	1.15125	12	-1.14479e-06
2	1	0	0	0	629.785	0.442007	0.442118	-0.00210113	3	1.15124	12	-9.28948e-07
2	1	0	1	0	634.216	0.397693	0.398373	-0.00156645	3	1.15123	13	-6.24033e-07
2	1	0	1	0	638.617	0.353679	0.354096	-0.0015093	3	1.15123	13	-5.34438e-07
2	1	0	0	0	643.019	0.309666	0.310489	-0.00133319	3	1.15122	13	-4.13941e-07
2	1	0	1	0	647.42	0.265652	0.266163	-0.0012619	3	1.15121	13	-3.35871e-07
2	1	0	0	0	651.821	0.221639	0.222031	-0.00104643	3	1.15121	13	-2.3234e-07
2	0	0	1	0	656.223	0.177625	0.178227	-0.000870525	3	1.1512	13	-1.55151e-07
2	0	0	1	0	660.624	0.133611	0.134158	-0.000770973	3	1.1512	13	-1.03432e-07
2	0	0	0	0	665.025	0.0895976	0.0898317	-0.00108053	3	1.15119	13	-9.70654e-08
2	0	0	1	0	669.427	0.045584	0.0461558	-0.00109554	3	1.15119	13	-5.05657e-08
2	0	0	0	0	673.828	0.00157037	0.00202375	-0.00115482	3	1.15118	13	-2.33705e-09
2	1	0	1	1	678.14	0.0415828	0.0417085	-0.000679963	3	1.15118	13	-2.83602e-08
2	1	0	1	1	680.192	0.0621392	0.0622256	0.00204377	3	1.15118	13	1.27175e-07