Folder: EC-Lab-Processing/Lares Oxides (part 12)

File: 2024-6-26 Ni45Co45Fe10Ox on FTO_1_07mg_02_CV_C05.mpt
EC-Lab ASCII FILE
Nb header lines : 60

Cyclic Voltammetry

Run on channel : 5 (SN 39658)
User :
CE vs. WE compliance from -10 V to 10 V
Electrode connection : standard
Potential control : Ewe
Ewe ctrl range : min = -2.50 V, max = 2.50 V
Safety Limits :
	Do not start on E overload
Acquisition started on : 06/26/2024 16:18:27.404
Technique started on : 06/26/2024 16:19:46.925
Loaded Setting File :  NONE
Saved on :
	File : 2024-6-26 Ni45Co45Fe10Ox on FTO_1_07mg_02_CV_C05.mpr
	Directory : C:\Users\sfolkman\OneDrive - New Mexico State University\Folkman Group Folder\Scott\
	Host : 172.24.124.15
Device : VSP (SN 1910)
Address : USB
EC-Lab for windows v11.46 (software)
Internet server v11.40 (firmware)
Command interpretor v11.40 (firmware)
Electrode material :
Initial state :
Electrolyte :
Comments :
Current amplifier : VSPB-4A
Electrode surface area : 0.000 cm²
Characteristic mass : 0.001 g
Equivalent Weight : 0.000 g/eq.
Density : 0.000 g/cm3
Volume (V) : 0.001 cm³
Record Ece
Cycle Definition : Charge/Discharge alternance
Ei (V)              0.000
vs.                 Eoc
dE/dt               10.000
dE/dt unit          mV/s
E1 (V)              1.000
vs.                 Ref
Step percent        50
N                   10
E range min (V)     -2.500
E range max (V)     2.500
I Range             Auto
I Range min         Unset
I Range max         Unset
I Range init        Unset
Bandwidth           4
E2 (V)              0.000
vs.                 Ref
nc cycles           2
Reverse Scan        1
Ef (V)              0.000
vs.                 Eoc

mode	ox/red	error	control changes	counter inc.	time/s	control/V	Ewe/V	<I>/mA	cycle number	(Q-Qo)/C	I Range	<Ece>/V	P/W	Ewe-Ece/V
2	1	0	0	0	79.5208	0.237676	0.238489	0.00603135	1	0.0000000E+000	13	0.00915823	1.43841e-06	0.22933
2	0	0	1	0	84.9776	0.292245	0.292784	0.00110047	1	6.47819e-06	13	-0.00341444	3.22201e-07	0.296199
2	0	0	1	0	90.4796	0.347264	0.347244	0.00244471	1	2.05725e-05	13	-0.013808	8.4891e-07	0.361052
2	0	0	1	0	95.9816	0.402284	0.40329	0.00498215	1	4.52101e-05	13	-0.0226054	2.00925e-06	0.425895
2	0	0	0	0	101.513	0.457603	0.458201	0.00903404	1	8.77229e-05	12	-0.0320983	4.1394e-06	0.490299
2	1	0	0	0	107.015	0.512623	0.51289	0.0209597	1	0.000167163	12	-0.0446853	1.075e-05	0.557575
2	1	0	0	0	112.517	0.567642	0.567789	0.0461935	1	0.000340932	12	-0.0634441	2.62282e-05	0.631233
2	1	0	1	0	118.019	0.622661	0.623149	0.127444	1	0.000781822	12	-0.113128	7.94168e-05	0.736277
2	1	0	1	0	123.521	0.677681	0.678162	0.470246	1	0.00219948	12	-0.66552	0.000318903	1.34368
2	1	0	1	0	129.053	0.733	0.733482	1.63453	1	0.00756754	11	-0.96768	0.0011989	1.70116
2	1	0	1	0	134.555	0.78802	0.788172	3.5435	1	0.0216148	11	-0.995656	0.00279289	1.78383
2	1	0	1	0	140.057	0.84304	0.843429	5.74506	1	0.0470903	11	-1.01738	0.00484555	1.86081
2	1	0	0	0	145.559	0.898059	0.8978	8.0647	1	0.085045	11	-1.03364	0.00724048	1.93144
2	1	0	0	0	151.061	0.953078	0.953431	10.4381	1	0.135949	11	-1.04716	0.00995202	2.00059
2	1	0	0	0	156.413	0.993492	0.993885	12.1455	1	0.197808	10	-1.05593	0.0120712	2.04982
2	1	0	0	0	161.915	0.938473	0.938994	9.58168	1	0.257507	10	-1.04424	0.00899714	1.98324
2	1	0	1	0	167.417	0.883453	0.883694	7.19485	1	0.30358	10	-1.0317	0.00635805	1.91539
2	1	0	1	0	172.919	0.828434	0.828567	4.96635	1	0.336933	10	-1.01687	0.00411495	1.84544
2	1	0	1	0	178.451	0.773115	0.773871	2.99848	1	0.358829	11	-0.99888	0.00232044	1.77275
2	1	0	1	0	183.953	0.718095	0.718533	1.43581	1	0.370786	11	-0.977028	0.00103167	1.69556
2	1	0	0	0	189.455	0.663076	0.663426	0.47054	1	0.375716	11	-0.953417	0.000312168	1.61684
2	1	0	0	0	194.987	0.607756	0.608048	0.0806197	1	0.377039	12	-0.934732	4.90206e-05	1.54278
2	0	0	0	0	200.489	0.552737	0.553188	-0.0267117	1	0.377116	12	-0.924222	-1.47766e-05	1.47741
2	0	0	0	0	205.991	0.497717	0.498055	-0.0471421	1	0.376884	12	-0.919068	-2.34794e-05	1.41712
2	0	0	1	0	211.493	0.442698	0.443252	-0.0447173	1	0.37662	12	-0.91661	-1.98211e-05	1.35986
2	0	0	1	0	216.995	0.387679	0.388285	-0.0379658	1	0.376391	12	-0.915245	-1.47415e-05	1.30353
2	0	0	1	0	222.497	0.332659	0.332772	-0.0314657	1	0.376202	12	-0.914583	-1.04709e-05	1.24736
2	0	0	1	0	227.999	0.277639	0.277716	-0.0266395	1	0.376045	12	-0.91392	-7.39822e-06	1.19164
2	0	0	0	0	233.501	0.22262	0.223071	-0.0232733	1	0.375912	12	-0.913516	-5.19161e-06	1.13659
2	0	0	0	0	239.003	0.167601	0.167167	-0.0210173	1	0.375795	12	-0.913097	-3.51341e-06	1.08026
2	0	0	0	0	244.505	0.112581	0.112989	-0.0195011	1	0.375685	12	-0.912571	-2.20342e-06	1.02556
2	0	0	1	0	250.006	0.0575621	0.0580677	-0.0169465	1	0.375585	12	-0.912337	-9.84046e-07	0.970404
2	0	0	1	0	255.508	0.00254265	0.00345269	-0.0164595	1	0.375491	12	-0.911833	-5.68296e-08	0.915286
2	0	0	1	1	260.921	0.0515599	0.052273	-0.0119601	1	0.375417	12	-0.912252	-6.25189e-07	0.964525
2	0	0	0	1	266.423	0.106579	0.106924	-0.0104118	1	0.375356	12	-0.91222	-1.11327e-06	1.01914
2	0	0	0	1	271.925	0.161599	0.16199	-0.0095528	1	0.375306	12	-0.912119	-1.54746e-06	1.07411
2	1	0	0	1	277.427	0.216618	0.217075	-0.00728598	1	0.375263	12	-0.912177	-1.5816e-06	1.12925
2	1	0	1	1	282.768	0.270037	0.270457	-0.00623891	2	0.37523	12	-0.912241	-1.68736e-06	1.1827
2	1	0	1	1	288.27	0.325056	0.325442	-0.00462461	2	0.375205	12	-0.912386	-1.50504e-06	1.23783
2	1	0	1	1	293.772	0.380076	0.38038	-0.00234073	2	0.375193	12	-0.912705	-8.90369e-07	1.29309
2	1	0	0	1	299.274	0.435095	0.435574	0.00194049	2	0.3752	12	-0.913253	8.45226e-07	1.34883
2	1	0	0	1	304.676	0.489114	0.489147	0.0119899	2	0.375244	12	-0.914864	5.86482e-06	1.40401
2	1	0	0	1	310.178	0.544134	0.544135	0.0370908	2	0.375377	12	-0.918595	2.01824e-05	1.46273
2	1	0	1	1	315.68	0.599153	0.599496	0.0977423	2	0.37573	12	-0.92652	5.85961e-05	1.52602
2	1	0	1	1	321.182	0.654173	0.65433	0.27034	2	0.37665	12	-0.941707	0.000176892	1.59604
2	1	0	1	1	326.684	0.709192	0.709443	0.913452	2	0.379554	12	-0.968816	0.000648042	1.67826
2	1	0	1	1	332.216	0.764511	0.764811	2.39788	2	0.388378	11	-0.997534	0.00183392	1.76235
2	1	0	0	1	337.718	0.819531	0.819926	4.37707	2	0.406891	11	-1.0187	0.00358887	1.83862
2	1	0	0	1	343.22	0.87455	0.875269	6.56761	2	0.43695	11	-1.03443	0.00574842	1.9097
2	1	0	0	1	348.722	0.92957	0.929985	8.86778	2	0.479389	11	-1.04763	0.0082469	1.97762
2	1	0	1	1	354.254	0.984889	0.985248	11.2172	2	0.535013	10	-1.05981	0.0110517	2.04506
2	1	0	0	1	359.626	0.961481	0.962169	10.1211	2	0.594878	10	-1.05472	0.00973824	2.01689
2	1	0	1	1	365.128	0.906462	0.906966	7.74529	2	0.643982	10	-1.04222	0.00702472	1.94918
2	1	0	1	1	370.63	0.851442	0.85177	5.52601	2	0.68041	10	-1.02777	0.00470689	1.87954
2	1	0	1	1	376.162	0.796123	0.796744	3.52159	2	0.705297	11	-1.01032	0.0028058	1.80706
2	1	0	1	1	381.664	0.741103	0.741541	1.82672	2	0.719829	11	-0.988441	0.00135459	1.72998
2	1	0	0	1	387.166	0.686084	0.686871	0.649245	2	0.72633	11	-0.961694	0.000445947	1.64857
2	1	0	0	1	392.698	0.630764	0.631297	0.134047	2	0.728214	12	-0.938313	8.46236e-05	1.56961
2	0	0	0	1	398.2	0.575745	0.576447	-0.00614996	2	0.728474	12	-0.925464	-3.54513e-06	1.50191
2	0	0	1	1	403.702	0.520726	0.521116	-0.0381161	2	0.728319	12	-0.919223	-1.98629e-05	1.44034
2	0	0	1	1	409.204	0.465706	0.466287	-0.0401933	2	0.728087	12	-0.9163	-1.87416e-05	1.38259
2	0	0	1	1	414.706	0.410687	0.410944	-0.0359224	2	0.727871	12	-0.914971	-1.47621e-05	1.32592
2	0	0	1	1	420.208	0.355667	0.356133	-0.030468	2	0.727688	12	-0.914189	-1.08507e-05	1.27032
[...]
2	0	0	0	0	469.635	0.138591	0.139114	-0.0101368	2	0.726808	12	-0.912037	-1.41017e-06	1.05115
2	0	0	0	0	475.137	0.19361	0.193639	-0.00705979	2	0.726764	12	-0.912123	-1.36705e-06	1.10576
2	0	0	1	0	480.479	0.247029	0.247135	-0.00538057	3	0.726728	12	-0.912157	-1.32973e-06	1.15929
2	0	0	1	0	485.981	0.302048	0.302272	-0.00386754	3	0.726698	12	-0.912287	-1.16905e-06	1.21456
2	0	0	1	0	491.483	0.357068	0.357516	-0.00224131	3	0.726678	12	-0.912427	-8.01305e-07	1.26994
2	0	0	0	0	496.985	0.412087	0.412478	0.000288209	3	0.726671	12	-0.912837	1.1888e-07	1.32532
2	1	0	0	0	502.487	0.467107	0.467354	0.00677576	3	0.726687	12	-0.913729	3.16668e-06	1.38108
2	0	0	0	0	507.989	0.522126	0.523031	0.0187875	3	0.726751	12	-0.915929	9.82646e-06	1.43896
2	1	0	1	0	513.491	0.577146	0.577264	0.05037	3	0.726934	12	-0.921099	2.90768e-05	1.49836
2	1	0	1	0	518.993	0.632165	0.63281	0.13172	3	0.727404	12	-0.93133	8.33534e-05	1.56414
2	1	0	1	0	524.495	0.687184	0.687889	0.429306	3	0.728756	12	-0.952986	0.000295315	1.64088
2	1	0	1	0	530.027	0.742504	0.743007	1.43963	3	0.733546	11	-0.984606	0.00106965	1.72761
2	1	0	0	0	535.529	0.797523	0.79788	3.12009	3	0.745887	11	-1.01005	0.00248946	1.80793
2	1	0	0	0	541.031	0.852543	0.853067	5.13315	3	0.768496	11	-1.02887	0.00437892	1.88193
2	1	0	0	0	546.533	0.907562	0.908136	7.32885	3	0.802719	11	-1.04409	0.00665559	1.95223
2	1	0	1	0	552.034	0.962581	0.962349	9.6094	3	0.849289	11	-1.05737	0.00924759	2.01972
2	1	0	0	0	557.437	0.983489	0.983869	10.4594	3	0.90618	10	-1.06214	0.0102907	2.04601
2	1	0	1	0	562.939	0.928469	0.929064	8.05669	3	0.957068	10	-1.04947	0.00748518	1.97854
2	1	0	1	0	568.441	0.87345	0.873742	5.84964	3	0.995236	10	-1.0351	0.00511107	1.90884
2	1	0	1	0	573.973	0.81813	0.818601	3.82714	3	1.02186	11	-1.01775	0.0031329	1.83635
2	1	0	1	0	579.475	0.763111	0.763181	2.08463	3	1.03794	11	-0.996174	0.00159095	1.75936
2	1	0	1	0	584.977	0.708091	0.708673	0.799673	3	1.04561	11	-0.968874	0.000566707	1.67755
2	1	0	0	0	590.509	0.652772	0.653119	0.17175	3	1.04798	12	-0.941763	0.000112173	1.59488
2	1	0	0	0	596.011	0.597753	0.598313	0.0154664	3	1.04838	12	-0.92759	9.25374e-06	1.5259
2	0	0	0	0	601.513	0.542733	0.54327	-0.0183107	3	1.04834	12	-0.92121	-9.94766e-06	1.46448
2	0	0	1	0	607.014	0.487714	0.488077	-0.0249654	3	1.04821	12	-0.918026	-1.21851e-05	1.4061
2	0	0	1	0	612.516	0.432694	0.433053	-0.0240044	3	1.04807	12	-0.916226	-1.03952e-05	1.34928
2	0	0	1	0	618.018	0.377675	0.37815	-0.0183601	3	1.04794	12	-0.915243	-6.94287e-06	1.29339
2	0	0	1	0	623.52	0.322656	0.32287	-0.0178622	3	1.04784	12	-0.914306	-5.76717e-06	1.23718
2	0	0	0	0	629.022	0.267636	0.26856	-0.0142505	3	1.04775	12	-0.913636	-3.82712e-06	1.1822
0	0	0	0	0	0.000000000000000E+000	0.0000000E+000	0.0000000E+000	0.000000000000000E+000	0.000000000000000E+000	0.0000000E+000	0	0.0000000E+000	0.0000000E+000	0.0000000E+000
2	1	0	0	0	640.026	0.157597	0.157759	-0.0121358	3	1.0476	12	-0.912547	-1.91453e-06	1.07031
2	0	0	1	0	645.528	0.102578	0.102983	-0.00948687	3	1.04753	12	-0.912376	-9.76984e-07	1.01536
2	0	0	1	0	651.03	0.0475585	0.047362	-0.0100411	3	1.04748	12	-0.912001	-4.75567e-07	0.959363
2	0	0	1	1	656.442	0.00654407	0.00727836	-0.00902458	3	1.04742	12	-0.911778	-6.56841e-08	0.919057
2	0	0	1	1	661.944	0.0615644	0.0617755	-0.00713065	3	1.04738	12	-0.911829	-4.40499e-07	0.973605
2	0	0	0	1	667.446	0.116583	0.116865	-0.00555025	3	1.04735	12	-0.911861	-6.48629e-07	1.02873
2	0	0	0	1	672.948	0.171602	0.172339	-0.00438839	3	1.04733	12	-0.911733	-7.56291e-07	1.08407
2	0	0	1	1	678.45	0.226621	0.226682	-0.00341698	3	1.0473	12	-0.911822	-7.74566e-07	1.1385
2	0	0	0	1	679.519	0.237376	0.237515	-0.00969715	3	1.0473	12	-0.912009	-2.30322e-06	1.14952