Folder: EC-Lab-Processing/Lares Oxides (part 3)

File: 2024-6-18 Ni33Co33Fe33Ox on FTO_1_07mg_03_CP_C05.mpt
EC-Lab ASCII FILE
Nb header lines : 54

Chronopotentiometry

Run on channel : 5 (SN 39658)
User :
CE vs. WE compliance from -10 V to 10 V
Electrode connection : standard
Potential control : Ewe
Ewe ctrl range : min = -2.50 V, max = 2.50 V
Safety Limits :
	Do not start on E overload
Acquisition started on : 06/18/2024 16:38:11.272
Technique started on : 06/18/2024 16:48:51.460
Loaded Setting File :  NONE
Saved on :
	File : 2024-6-18 Ni33Co33Fe33Ox on FTO_1_07mg_03_CP_C05.mpr
	Directory : C:\Users\sfolkman\OneDrive - New Mexico State University\Folkman Group Folder\Scott\
	Host : 172.24.124.15
Device : VSP (SN 1910)
Address : USB
EC-Lab for windows v11.46 (software)
Internet server v11.40 (firmware)
Command interpretor v11.40 (firmware)
Electrode material :
Initial state :
Electrolyte :
Comments :
Current amplifier : VSPB-4A
Electrode surface area : 0.001 cm²
Characteristic mass : 0.001 g
Equivalent Weight : 0.000 g/eq.
Density : 0.000 g/cm3
Volume (V) : 0.001 cm³
Cycle Definition : Charge/Discharge alternance
Is                  10.000
unit Is             mA
vs.                 <None>
ts (h:m:s)          48:00:0.0000
EM (V)              2.000
dQM                 480.000
unit dQM            mA.h
record              <Ewe>
dEs (mV)            0.00
dts (s)             2.0000
E range min (V)     -2.500
E range max (V)     2.500
I Range             10 mA
Bandwidth           4
goto Ns'            0
nc cycles           0

mode	ox/red	error	control changes	Ns changes	counter inc.	Ns	time/s	control/mA	<Ewe>/V	I/mA	dQ/C	(Q-Qo)/C	half cycle	Q charge/discharge/mA.h	I Range	Energy charge/W.h	Energy discharge/W.h	Capacitance charge/µF	Capacitance discharge/µF	Q discharge/mA.h	Q charge/mA.h	Capacity/mA.h	Efficiency/%	cycle number	P/W
1	1	0	1	0	0	0	640.188	10	0.918903	9.99644	0.0189725	0.0189725	0	0.00527015	11	4.84275e-06	0.000000000000000E+000	0.000000000000000E+000	0.000000000000000E+000	0.000000000000000E+000	0.00527015	0.00527015	0.0000000E+000	0.000000000000000E+000	0.00918575
1	1	0	1	0	0	0	686.188	10	0.933267	9.99656	0.478792	0.478792	0	0.132998	11	0.000123748	0.000000000000000E+000	3.33314e+07	0.000000000000000E+000	0.000000000000000E+000	0.132998	0.132998	0.0000000E+000	0.000000000000000E+000	0.00932946
1	1	0	1	0	0	0	732.188	10	0.938616	9.99536	0.938611	0.938611	0	0.260725	11	0.000243406	0.000000000000000E+000	4.76122e+07	0.000000000000000E+000	0.000000000000000E+000	0.260725	0.260725	0.0000000E+000	0.000000000000000E+000	0.0093818
1	1	0	1	0	0	0	778.188	10	0.943522	9.9958	1.39843	1.39843	0	0.388452	11	0.000363675	0.000000000000000E+000	5.68028e+07	0.000000000000000E+000	0.000000000000000E+000	0.388452	0.388452	0.0000000E+000	0.000000000000000E+000	0.00943125
1	1	0	1	0	0	0	824.188	10	0.946597	9.99606	1.85824	1.85824	0	0.516179	11	0.000484421	0.000000000000000E+000	6.70986e+07	0.000000000000000E+000	0.000000000000000E+000	0.516179	0.516179	0.0000000E+000	0.000000000000000E+000	0.00946223
1	1	0	1	0	0	0	870.188	10	0.949976	9.99516	2.31806	2.31806	0	0.643906	11	0.000605546	0.000000000000000E+000	7.4599e+07	0.000000000000000E+000	0.000000000000000E+000	0.643906	0.643906	0.0000000E+000	0.000000000000000E+000	0.00949517
1	1	0	1	0	0	0	916.188	10	0.952994	9.9958	2.77788	2.77788	0	0.771632	11	0.00072707	0.000000000000000E+000	8.14842e+07	0.000000000000000E+000	0.000000000000000E+000	0.771632	0.771632	0.0000000E+000	0.000000000000000E+000	0.00952593
1	1	0	1	0	0	0	962.188	10	0.954715	9.99637	3.23769	3.23769	0	0.899358	11	0.000848893	0.000000000000000E+000	9.04074e+07	0.000000000000000E+000	0.000000000000000E+000	0.899358	0.899358	0.0000000E+000	0.000000000000000E+000	0.00954368
1	1	0	1	0	0	0	1008.19	10	0.956921	9.99637	3.6975	3.6975	0	1.02708	11	0.000970985	0.000000000000000E+000	9.72545e+07	0.000000000000000E+000	0.000000000000000E+000	1.02708	1.02708	0.0000000E+000	0.000000000000000E+000	0.00956574
1	1	0	1	0	0	0	1054.19	10	0.958107	9.99618	4.15731	4.15731	0	1.15481	11	0.00109329	0.000000000000000E+000	1.06042e+08	0.000000000000000E+000	0.000000000000000E+000	1.15481	1.15481	0.0000000E+000	0.000000000000000E+000	0.00957741
1	1	0	1	0	0	0	1100.19	10	0.959402	9.99593	4.61713	4.61713	0	1.28254	11	0.00121578	0.000000000000000E+000	1.14004e+08	0.000000000000000E+000	0.000000000000000E+000	1.28254	1.28254	0.0000000E+000	0.000000000000000E+000	0.00959012
1	1	0	1	0	0	0	1146.19	10	0.960858	9.99561	5.07694	5.07694	0	1.41026	11	0.00133845	0.000000000000000E+000	1.21009e+08	0.000000000000000E+000	0.000000000000000E+000	1.41026	1.41026	0.0000000E+000	0.000000000000000E+000	0.00960436
1	1	0	1	0	0	0	1192.19	10	0.962032	9.99631	5.53675	5.53675	0	1.53799	11	0.00146127	0.000000000000000E+000	1.28374e+08	0.000000000000000E+000	0.000000000000000E+000	1.53799	1.53799	0.0000000E+000	0.000000000000000E+000	0.00961677
1	1	0	1	0	0	0	1238.19	10	0.96352	9.99574	5.99657	5.99657	0	1.66571	11	0.00158422	0.000000000000000E+000	1.34401e+08	0.000000000000000E+000	0.000000000000000E+000	1.66571	1.66571	0.0000000E+000	0.000000000000000E+000	0.00963109
1	1	0	1	0	0	0	1284.19	10	0.964358	9.99536	6.45638	6.45638	0	1.79344	11	0.00170729	0.000000000000000E+000	1.42038e+08	0.000000000000000E+000	0.000000000000000E+000	1.79344	1.79344	0.0000000E+000	0.000000000000000E+000	0.0096391
1	1	0	1	0	0	0	1330.19	10	0.96507	9.99529	6.91619	6.91619	0	1.92116	11	0.00183048	0.000000000000000E+000	1.49805e+08	0.000000000000000E+000	0.000000000000000E+000	1.92116	1.92116	0.0000000E+000	0.000000000000000E+000	0.00964616
1	1	0	1	0	0	0	1376.19	10	0.966095	9.9965	7.376	7.376	0	2.04889	11	0.0019538	0.000000000000000E+000	1.56297e+08	0.000000000000000E+000	0.000000000000000E+000	2.04889	2.04889	0.0000000E+000	0.000000000000000E+000	0.00965757
1	1	0	1	0	0	0	1422.19	10	0.967512	9.99631	7.83582	7.83582	0	2.17662	11	0.0020773	0.000000000000000E+000	1.612e+08	0.000000000000000E+000	0.000000000000000E+000	2.17662	2.17662	0.0000000E+000	0.000000000000000E+000	0.00967155
1	1	0	1	0	0	0	1468.19	10	0.969093	9.99606	8.29563	8.29563	0	2.30434	11	0.00220097	0.000000000000000E+000	1.65283e+08	0.000000000000000E+000	0.000000000000000E+000	2.30434	2.30434	0.0000000E+000	0.000000000000000E+000	0.00968711
1	1	0	1	0	0	0	1514.19	10	0.970383	9.99516	8.75544	8.75544	0	2.43207	11	0.00232483	0.000000000000000E+000	1.70072e+08	0.000000000000000E+000	0.000000000000000E+000	2.43207	2.43207	0.0000000E+000	0.000000000000000E+000	0.00969914
1	1	0	1	0	0	0	1560.19	10	0.970914	9.9958	9.21525	9.21525	0	2.55979	11	0.0024488	0.000000000000000E+000	1.77177e+08	0.000000000000000E+000	0.000000000000000E+000	2.55979	2.55979	0.0000000E+000	0.000000000000000E+000	0.00970506
1	1	0	1	0	0	0	1606.19	10	0.972125	9.99561	9.67506	9.67506	0	2.68752	11	0.00257289	0.000000000000000E+000	1.81786e+08	0.000000000000000E+000	0.000000000000000E+000	2.68752	2.68752	0.0000000E+000	0.000000000000000E+000	0.00971698
1	1	0	1	0	0	0	1652.19	10	0.972863	9.99504	10.1349	10.1349	0	2.81524	11	0.0026971	0.000000000000000E+000	1.87821e+08	0.000000000000000E+000	0.000000000000000E+000	2.81524	2.81524	0.0000000E+000	0.000000000000000E+000	0.0097238
1	1	0	1	0	0	0	1698.19	10	0.974045	9.9951	10.5947	10.5947	0	2.94297	11	0.00282143	0.000000000000000E+000	1.92132e+08	0.000000000000000E+000	0.000000000000000E+000	2.94297	2.94297	0.0000000E+000	0.000000000000000E+000	0.00973568
[...]
1	1	0	1	0	0	0	1928.19	10	0.978645	9.99593	12.8937	12.8937	0	3.58159	11	0.00344488	0.000000000000000E+000	2.15821e+08	0.000000000000000E+000	0.000000000000000E+000	3.58159	3.58159	0.0000000E+000	0.000000000000000E+000	0.00978247
1	1	0	1	0	0	0	1974.19	10	0.979289	9.99682	13.3535	13.3535	0	3.70932	11	0.0035699	0.000000000000000E+000	2.21134e+08	0.000000000000000E+000	0.000000000000000E+000	3.70932	3.70932	0.0000000E+000	0.000000000000000E+000	0.00978978
1	1	0	1	0	0	0	2020.19	10	0.980457	9.99631	13.8134	13.8134	0	3.83704	11	0.00369503	0.000000000000000E+000	2.24408e+08	0.000000000000000E+000	0.000000000000000E+000	3.83704	3.83704	0.0000000E+000	0.000000000000000E+000	0.00980095
1	1	0	1	0	0	0	2066.19	10	0.980348	9.99593	14.2732	14.2732	0	3.96477	11	0.00382023	0.000000000000000E+000	2.3229e+08	0.000000000000000E+000	0.000000000000000E+000	3.96477	3.96477	0.0000000E+000	0.000000000000000E+000	0.00979949
1	1	0	1	0	0	0	2112.19	10	0.981457	9.99574	14.733	14.733	0	4.09249	11	0.00394553	0.000000000000000E+000	2.35524e+08	0.000000000000000E+000	0.000000000000000E+000	4.09249	4.09249	0.0000000E+000	0.000000000000000E+000	0.00981038
1	1	0	1	0	0	0	2158.19	10	0.98238	9.99485	15.1928	15.1928	0	4.22022	11	0.00407095	0.000000000000000E+000	2.39341e+08	0.000000000000000E+000	0.000000000000000E+000	4.22022	4.22022	0.0000000E+000	0.000000000000000E+000	0.00981874
1	1	0	1	0	0	0	2204.19	10	0.983187	9.99599	15.6526	15.6526	0	4.34795	11	0.00419648	0.000000000000000E+000	2.43491e+08	0.000000000000000E+000	0.000000000000000E+000	4.34795	4.34795	0.0000000E+000	0.000000000000000E+000	0.00982792
1	1	0	1	0	0	0	2250.19	10	0.98394	9.99529	16.1124	16.1124	0	4.47567	11	0.00432211	0.000000000000000E+000	2.47741e+08	0.000000000000000E+000	0.000000000000000E+000	4.47567	4.47567	0.0000000E+000	0.000000000000000E+000	0.00983477
1	1	0	1	0	0	0	2296.19	10	0.984786	9.99593	16.5722	16.5722	0	4.6034	11	0.00444785	0.000000000000000E+000	2.51538e+08	0.000000000000000E+000	0.000000000000000E+000	4.6034	4.6034	0.0000000E+000	0.000000000000000E+000	0.00984385
1	1	0	1	0	0	0	2342.19	10	0.986001	9.99536	17.032	17.032	0	4.73112	11	0.00457372	0.000000000000000E+000	2.53838e+08	0.000000000000000E+000	0.000000000000000E+000	4.73112	4.73112	0.0000000E+000	0.000000000000000E+000	0.00985543
1	1	0	1	0	0	0	2388.19	10	0.987759	9.99625	17.4919	17.4919	0	4.85885	11	0.00469971	0.000000000000000E+000	2.54033e+08	0.000000000000000E+000	0.000000000000000E+000	4.85885	4.85885	0.0000000E+000	0.000000000000000E+000	0.00987388
1	1	0	1	0	0	0	2434.19	10	0.98828	9.99599	17.9517	17.9517	0	4.98657	11	0.0048259	0.000000000000000E+000	2.58754e+08	0.000000000000000E+000	0.000000000000000E+000	4.98657	4.98657	0.0000000E+000	0.000000000000000E+000	0.00987884
1	1	0	1	0	0	0	2480.19	10	0.989186	9.99498	18.4115	18.4115	0	5.1143	11	0.0049522	0.000000000000000E+000	2.61962e+08	0.000000000000000E+000	0.000000000000000E+000	5.1143	5.1143	0.0000000E+000	0.000000000000000E+000	0.00988689
1	1	0	1	0	0	0	2526.19	10	0.991368	9.99618	18.8713	18.8713	0	5.24202	11	0.00507874	0.000000000000000E+000	2.60419e+08	0.000000000000000E+000	0.000000000000000E+000	5.24202	5.24202	0.0000000E+000	0.000000000000000E+000	0.00990989
1	1	0	1	0	0	0	2572.19	10	0.991936	9.99586	19.3311	19.3311	0	5.36975	11	0.0052054	0.000000000000000E+000	2.64689e+08	0.000000000000000E+000	0.000000000000000E+000	5.36975	5.36975	0.0000000E+000	0.000000000000000E+000	0.00991525
1	1	0	1	0	0	0	2604.49	10	2.50168	9.99586	19.654	19.654	0	5.45944	11	0.00529441	0.000000000000000E+000	1.24175e+07	0.000000000000000E+000	0.000000000000000E+000	5.45944	5.45944	0.0000000E+000	0.000000000000000E+000	0.0250064

File: 2024-6-19 FeOx on FTO_1_03mg_01_PEIS_C05.mpt
EC-Lab ASCII FILE
Nb header lines : 65

Potentio Electrochemical Impedance Spectroscopy

Run on channel : 5 (SN 39658)
User :
CE vs. WE compliance from -10 V to 10 V
Electrode connection : standard
Potential control : Ewe
Ewe ctrl range : min = -2.50 V, max = 2.50 V
Safety Limits :
	Do not start on E overload
Acquisition started on : 06/19/2024 15:35:49.269
Technique started on : 06/19/2024 15:35:50.807
Loaded Setting File :  NONE
Saved on :
	File : 2024-6-19 FeOx on FTO_1_03mg_01_PEIS_C05.mpr
	Directory : C:\Users\sfolkman\OneDrive - New Mexico State University\Folkman Group Folder\Scott\
	Host : 172.24.124.15
Device : VSP (SN 1910)
Address : USB
EC-Lab for windows v11.46 (software)
Internet server v11.40 (firmware)
Command interpretor v11.40 (firmware)
Electrode material :
Initial state :
Electrolyte :
Comments :
Current amplifier : VSPB-4A
Electrode surface area : 0.001 cm²
Characteristic mass : 0.001 g
Equivalent Weight : 0.000 g/eq.
Density : 0.000 g/cm3
Volume (V) : 0.001 cm³
Cycle Definition : Charge/Discharge alternance
Mode                Single sine
E (V)               0.0000
vs.                 Eoc
tE (h:m:s)          0:00:0.0000
record              0
dI                  0.000
unit dI             mA
dt (s)              0.000
fi                  200.000
unit fi             kHz
ff                  100.000
unit ff             mHz
Nd                  6
Points              per decade
spacing             Logarithmic
Va (mV)             10.0
pw                  0.10
Na                  2
corr                0
E range min (V)     -2.500
E range max (V)     2.500
I Range             Auto
Bandwidth           4
nc cycles           0
goto Ns'            0
nr cycles           0
inc. cycle          0

freq/Hz	Re(Z)/Ohm	-Im(Z)/Ohm	|Z|/Ohm	Phase(Z)/deg	time/s	<Ewe>/V	<I>/mA	Cs/µF	Cp/µF	cycle number	I Range	|Ewe|/V	|I|/A	Ns	(Q-Qo)/mA.h	Re(Y)/Ohm-1	Im(Y)/Ohm-1	|Y|/Ohm-1	Phase(Y)/deg	Re(C)/nF	Im(C)/nF	|C|/nF	Phase(C)/deg	Re(M)	Im(M)	|M|	Phase(M)/deg	Re(Permittivity)	Im(Permittivity)	|Permittivity|	Phase(Permittivity)/deg	Re(Resistivity)/Ohm.cm	Im(Resistivity)/Ohm.cm	|Resistivity|/Ohm.cm	Phase(Resistivity)/deg	Re(Conductivity)/mS/cm	Im(Conductivity)/mS/cm	|Conductivity|/mS/cm	Phase(Conductivity)/deg	Tan(Delta)	Loss Angle(Delta)/deg	dq/mA.h
199998	9.28652	15.816	18.3408	-59.5802	1.53848	0.0427792	-0.0132126	0.0503151	0.0374157	1	10	0.0093661	0.00051067	0	-6.1234e-06	0.0276068	0.0470175	0.0545233	59.5802	37.4157	21.969	43.3886	-30.4198	0.0000000E+000	0.0000000E+000	0.0000000E+000	30.4198	0.0000000E+000	0.0000000E+000	0.0000000E+000	-30.4198	0.0000000E+000	0.0000000E+000	0.0000000E+000	-59.5802	0.0000000E+000	0.0000000E+000	0.0000000E+000	59.5802	0.58716	59.5802	-6.1234e-06
91291.2	17.6539	10.3332	20.4557	-30.3413	2.72848	0.0428756	-0.0124774	0.168717	0.0430524	1	10	0.0101434	0.000495873	0	-1.57361e-05	0.0421904	0.0246948	0.0488862	30.3413	43.0524	73.5537	85.2271	-59.6587	0.0000000E+000	0.0000000E+000	0.0000000E+000	59.6587	0.0000000E+000	0.0000000E+000	0.0000000E+000	-59.6587	0.0000000E+000	0.0000000E+000	0.0000000E+000	-30.3413	0.0000000E+000	0.0000000E+000	0.0000000E+000	30.3413	1.70847	30.3413	-4.22966e-06
41669.8	18.3599	3.60752	18.7109	-11.1164	3.62048	0.0428717	-0.0128646	1.05874	0.0393567	1	10	0.0104986	0.000561096	0	-9.86023e-06	0.052442	0.0103043	0.0534447	11.1164	39.3567	200.299	204.129	-78.8836	0.0000000E+000	0.0000000E+000	0.0000000E+000	78.8836	0.0000000E+000	0.0000000E+000	0.0000000E+000	-78.8836	0.0000000E+000	0.0000000E+000	0.0000000E+000	-11.1164	0.0000000E+000	0.0000000E+000	0.0000000E+000	11.1164	5.08932	11.1164	3.25875e-06
19020.9	17.7011	2.59319	17.8901	-8.33444	4.5125	0.0428755	-0.0134192	3.22667	0.0677949	1	10	0.0103372	0.000577818	0	-1.43043e-05	0.0553066	0.00810231	0.0558969	8.33444	67.7949	462.77	467.709	-81.6656	0.0000000E+000	0.0000000E+000	0.0000000E+000	81.6656	0.0000000E+000	0.0000000E+000	0.0000000E+000	-81.6656	0.0000000E+000	0.0000000E+000	0.0000000E+000	-8.33444	0.0000000E+000	0.0000000E+000	0.0000000E+000	8.33444	6.82602	8.33444	-4.01347e-07
8683.37	17.6903	3.33544	18.002	-10.6776	5.432	0.0429057	-0.0120698	5.49513	0.188645	1	10	0.0101584	0.000564294	0	-2.02922e-05	0.0545877	0.0102923	0.0555495	10.6776	188.645	1000.52	1018.15	-79.3224	0.0000000E+000	0.0000000E+000	0.0000000E+000	79.3224	0.0000000E+000	0.0000000E+000	0.0000000E+000	-79.3224	0.0000000E+000	0.0000000E+000	0.0000000E+000	-10.6776	0.0000000E+000	0.0000000E+000	0.0000000E+000	10.6776	5.30372	10.6776	-1.4969e-06
3961.2	17.847	6.00901	18.8314	-18.6082	6.54495	0.0428982	-0.0149547	6.68637	0.680816	1	10	0.0105782	0.000561731	0	-2.56267e-05	0.0503266	0.0169448	0.0531027	18.6082	680.816	2022.05	2133.59	-71.3918	0.0000000E+000	0.0000000E+000	0.0000000E+000	71.3918	0.0000000E+000	0.0000000E+000	0.0000000E+000	-71.3918	0.0000000E+000	0.0000000E+000	0.0000000E+000	-18.6082	0.0000000E+000	0.0000000E+000	0.0000000E+000	18.6082	2.97004	18.6082	-4.54817e-06
1808.26	17.9639	12.4198	21.8392	-34.6591	7.49295	0.0429032	-0.014616	7.08669	2.29191	1	10	0.0108542	0.000497003	0	-3.4267e-05	0.0376639	0.0260399	0.0457891	34.6591	2291.91	3315	4030.14	-55.3409	0.0000000E+000	0.0000000E+000	0.0000000E+000	55.3409	0.0000000E+000	0.0000000E+000	0.0000000E+000	-55.3409	0.0000000E+000	0.0000000E+000	0.0000000E+000	-34.6591	0.0000000E+000	0.0000000E+000	0.0000000E+000	34.6591	1.44639	34.6591	-3.94826e-06
825.264	18.266	26.7989	32.4319	-55.7218	8.93567	0.0428924	-0.00175505	7.19632	4.9136	1	11	0.0102175	0.000315046	0	-3.65042e-05	0.017366	0.0254784	0.0308338	55.7218	4913.6	3349.09	5946.41	-34.2782	0.0000000E+000	0.0000000E+000	0.0000000E+000	34.2782	0.0000000E+000	0.0000000E+000	0.0000000E+000	-34.2782	0.0000000E+000	0.0000000E+000	0.0000000E+000	-55.7218	0.0000000E+000	0.0000000E+000	0.0000000E+000	55.7218	0.681596	55.7218	2.06844e-06
377.051	19.0838	58.1635	61.2142	-71.835	9.88265	0.0429022	-0.00183549	7.25721	6.55187	1	11	0.00953176	0.000155711	0	-3.80949e-05	0.00509286	0.0155219	0.0163361	71.835	6551.87	2149.72	6895.53	-18.165	0.0000000E+000	0.0000000E+000	0.0000000E+000	18.165	0.0000000E+000	0.0000000E+000	0.0000000E+000	-18.165	0.0000000E+000	0.0000000E+000	0.0000000E+000	-71.835	0.0000000E+000	0.0000000E+000	0.0000000E+000	71.835	0.328107	71.835	-1.25233e-06
172.037	21.9295	125.662	127.561	-80.1009	10.8264	0.0428842	-0.00186379	7.36201	7.14442	1	11	0.00931852	7.30517e-05	0	-3.75034e-05	0.00134771	0.00772269	0.00783941	80.1009	7144.42	1246.79	7252.4	-9.89915	0.0000000E+000	0.0000000E+000	0.0000000E+000	9.89915	0.0000000E+000	0.0000000E+000	0.0000000E+000	-9.89915	0.0000000E+000	0.0000000E+000	0.0000000E+000	-80.1009	0.0000000E+000	0.0000000E+000	0.0000000E+000	80.1009	0.174513	80.1009	2.55475e-07
78.5176	30.1412	269.018	270.701	-83.6072	12.0445	0.0428945	-0.00026336	7.5348	7.44139	1	12	0.00937818	3.4644e-05	0	-3.75114e-05	0.00041132	0.00367114	0.00369411	83.6072	7441.39	833.744	7487.95	-6.39285	0.0000000E+000	0.0000000E+000	0.0000000E+000	6.39285	0.0000000E+000	0.0000000E+000	0.0000000E+000	-6.39285	0.0000000E+000	0.0000000E+000	0.0000000E+000	-83.6072	0.0000000E+000	0.0000000E+000	0.0000000E+000	83.6072	0.112041	83.6072	-3.06219e-08
[...]
16.367	53.0362	1228.16	1229.3	-87.5273	13.923	0.0428726	-0.000211333	7.91767	7.90293	1	12	0.00928002	7.54901e-06	0	-3.76846e-05	3.50957e-05	0.000812711	0.000813469	87.5273	7902.93	341.276	7910.3	-2.47269	0.0000000E+000	0.0000000E+000	0.0000000E+000	2.47269	0.0000000E+000	0.0000000E+000	0.0000000E+000	-2.47269	0.0000000E+000	0.0000000E+000	0.0000000E+000	-87.5273	0.0000000E+000	0.0000000E+000	0.0000000E+000	87.5273	0.0431835	87.5273	8.71504e-09
7.46893	75.8936	2659.77	2660.85	-88.3656	14.9416	0.0428758	-2.49008e-05	8.01156	8.00505	1	13	0.00927864	3.48709e-06	0	-3.77376e-05	1.07192e-05	0.000375666	0.000375819	88.3656	8005.05	228.415	8008.3	-1.63443	0.0000000E+000	0.0000000E+000	0.0000000E+000	1.63443	0.0000000E+000	0.0000000E+000	0.0000000E+000	-1.63443	0.0000000E+000	0.0000000E+000	0.0000000E+000	-88.3656	0.0000000E+000	0.0000000E+000	0.0000000E+000	88.3656	0.0285339	88.3656	-8.87464e-09
3.4086	198.187	5752.63	5756.04	-88.0269	16.0852	0.0429002	6.78843e-07	8.11668	8.10706	1	13	0.0092703	1.61053e-06	0	-3.77069e-05	5.98173e-06	0.000173627	0.000173731	88.0269	8107.06	279.3	8111.87	-1.97314	0.0000000E+000	0.0000000E+000	0.0000000E+000	1.97314	0.0000000E+000	0.0000000E+000	0.0000000E+000	-1.97314	0.0000000E+000	0.0000000E+000	0.0000000E+000	-88.0269	0.0000000E+000	0.0000000E+000	0.0000000E+000	88.0269	0.0344515	88.0269	3.41605e-08
1.55627	257.096	11665.5	11668.3	-88.7375	18.9375	0.0428849	0.000116574	8.76658	8.76233	1	14	0.0092883	7.96026e-07	0	-3.77361e-05	1.88832e-06	8.56812e-05	8.5702e-05	88.7375	8762.33	193.113	8764.45	-1.26254	0.0000000E+000	0.0000000E+000	0.0000000E+000	1.26254	0.0000000E+000	0.0000000E+000	0.0000000E+000	-1.26254	0.0000000E+000	0.0000000E+000	0.0000000E+000	-88.7375	0.0000000E+000	0.0000000E+000	0.0000000E+000	88.7375	0.022039	88.7375	9.87468e-10
0.710357	-758.712	32023.4	32032.4	-91.3572	23.9822	0.0428827	-8.69431e-06	6.99643	6.9925	1	14	0.00926174	2.89137e-07	0	-3.77202e-05	-7.39433e-07	3.12097e-05	3.12184e-05	91.3572	6992.5	-165.67	6994.47	1.35722	0.0000000E+000	0.0000000E+000	0.0000000E+000	-1.35722	0.0000000E+000	0.0000000E+000	0.0000000E+000	1.35722	0.0000000E+000	0.0000000E+000	0.0000000E+000	-91.3572	0.0000000E+000	0.0000000E+000	0.0000000E+000	91.3572	-0.0236924	91.3572	-5.22662e-08
0.324439	2500.84	59657.1	59709.5	-87.5996	34.9211	0.0429043	-1.39404e-06	8.22289	8.20847	1	14	0.00926103	1.55102e-07	0	-3.76861e-05	7.01453e-07	1.67331e-05	1.67478e-05	87.5996	8208.47	344.101	8215.68	-2.40044	0.0000000E+000	0.0000000E+000	0.0000000E+000	2.40044	0.0000000E+000	0.0000000E+000	0.0000000E+000	-2.40044	0.0000000E+000	0.0000000E+000	0.0000000E+000	-87.5996	0.0000000E+000	0.0000000E+000	0.0000000E+000	87.5996	0.0419202	87.5996	4.72142e-08
0.147897	1432.48	166313	166319	-89.5065	58.8156	0.0429018	5.42181e-06	6.47047	6.46999	1	14	0.00926203	5.56884e-08	0	-3.764e-05	5.1785e-08	6.01232e-06	6.01255e-06	89.5065	6469.99	55.727	6470.23	-0.493484	0.0000000E+000	0.0000000E+000	0.0000000E+000	0.493484	0.0000000E+000	0.0000000E+000	0.0000000E+000	-0.493484	0.0000000E+000	0.0000000E+000	0.0000000E+000	-89.5065	0.0000000E+000	0.0000000E+000	0.0000000E+000	89.5065	0.00861316	89.5065	3.65647e-08
0.0999041	9104.12	184758	184982	-87.179	79.8905	0.0429028	-7.76496e-07	8.62251	8.60162	1	14	0.009265	5.0086e-08	0	-3.76892e-05	2.66059e-07	5.39938e-06	5.40593e-06	87.179	8601.62	423.853	8612.06	-2.82102	0.0000000E+000	0.0000000E+000	0.0000000E+000	2.82102	0.0000000E+000	0.0000000E+000	0.0000000E+000	-2.82102	0.0000000E+000	0.0000000E+000	0.0000000E+000	-87.179	0.0000000E+000	0.0000000E+000	0.0000000E+000	87.179	0.049276	87.179	-4.92075e-08