Folder: EC-Lab-Processing/Data_Lola/CoNiFeNx_400ºC_24h_13102022/Electrodes_19012023 (part 3)

File: 2023_01_20_CoNiFeNx_400ºC_24h_electrode2_19012023_C05.mpt
EC-Lab ASCII FILE
Nb header lines : 64

Potentio Electrochemical Impedance Spectroscopy

Run on channel : 5 (SN 30436)
User :
CE vs. WE compliance from -10 V to 10 V
Electrode connection : standard
Potential control : Ewe
Ewe ctrl range : min = -2.50 V, max = 2.50 V
Safety Limits :
	Do not start on E overload
Acquisition started on : 01/20/2023 12:55:05.618
Loaded Setting File :  NONE
Saved on :
	File : 2023_01_20_CoNiFeNx_400ºC_24h_electrode2_19012023_C05.mpr
	Directory : C:\Users\grupogalan\Documents\EC-Lab\Data\Lole Jurado\
	Host : 169.254.104.159
Device : VSP (SN 1176)
Address : USB
EC-Lab for windows v11.46 (software)
Internet server v11.40 (firmware)
Command interpretor v11.40 (firmware)
Electrode material :
Initial state :
Electrolyte :
Comments :
Electrode surface area : 0.001 cm²
Characteristic mass : 0.001 g
Equivalent Weight : 0.000 g/eq.
Density : 0.000 g/cm3
Volume (V) : 0.001 cm³
Record Ece
Cycle Definition : Charge/Discharge alternance
Mode                Single sine
E (V)               0.0000
vs.                 Eoc
tE (h:m:s)          0:00:0.0000
record              0
dI                  0.000
unit dI             mA
dt (s)              0.000
fi                  200.000
unit fi             kHz
ff                  100.000
unit ff             mHz
Nd                  6
Points              per decade
spacing             Logarithmic
Va (mV)             10.0
pw                  0.10
Na                  2
corr                0
E range min (V)     -2.500
E range max (V)     2.500
I Range             Auto
Bandwidth           5
nc cycles           0
goto Ns'            0
nr cycles           0
inc. cycle          0

freq/Hz	Re(Z)/Ohm	-Im(Z)/Ohm	|Z|/Ohm	Phase(Z)/deg	time/s	<Ewe>/V	<I>/mA	Cs/µF	Cp/µF	cycle number	I Range	|Ewe|/V	|I|/A	Ns	(Q-Qo)/mA.h	<Ece>/V	|Ece|/V	Phase(Zce)/deg	|Zce|/Ohm	Re(Zce)/Ohm	-Im(Zce)/Ohm	Phase(Zwe-ce)/deg	|Zwe-ce|/Ohm	Re(Zwe-ce)/Ohm	-Im(Zwe-ce)/Ohm	Re(Y)/Ohm-1	Im(Y)/Ohm-1	|Y|/Ohm-1	Phase(Y)/deg	dq/mA.h
199998	1.52329	-1.47102	2.11762	43.9999	2.05755	-0.0814757	-0.0878881	-0.540972	-0.261046	1	9	0.00731784	0.00345568	0	-2.71462e-05	-0.088854	0.00206778	-47.7104	0.598369	0.40263	0.442645	28.1007	2.18329	1.92592	-1.02838	0.339693	-0.328036	0.472228	-43.9999	-2.71462e-05
91291.2	0.805948	-0.397951	0.898842	26.2787	2.93352	-0.0814417	-0.169956	-4.38088	-0.858725	1	9	0.00959824	0.0106784	0	-8.38471e-05	-0.0992453	0.0108433	6.88296	1.01544	1.00812	-0.121692	15.9844	1.88703	1.81407	-0.519643	0.997563	-0.492564	1.11254	-26.2787	-2.93046e-05
41669.8	0.714678	0.0127495	0.714792	-1.02202	4.17554	-0.0816234	-0.197013	299.576	0.0953084	1	9	0.0097876	0.0136929	0	-0.000133606	-0.0783481	0.014315	5.6177	1.04543	1.04041	-0.102337	2.92211	1.75737	1.75508	-0.0895878	1.39879	0.0249535	1.39901	1.02202	-1.04582e-05
19020.9	0.778639	0.273758	0.825362	-19.3709	5.17353	-0.0814086	-0.300138	30.5647	3.36253	1	9	0.00893571	0.0108264	0	-0.000369206	-0.0856067	0.0114974	1.38374	1.06198	1.06167	-0.025645	-7.67842	1.85696	1.84031	0.248113	1.143	0.401863	1.21159	19.3709	-0.000208165
8684.68	0.872648	0.401483	0.960574	-24.706	6.04952	-0.081297	-0.163769	45.6456	7.97392	1	9	0.00961804	0.0100128	0	-0.0003872	-0.0867337	0.0109487	-1.2002	1.09347	1.09323	0.0229037	-12.1819	2.01116	1.96588	0.424387	0.945752	0.435117	1.04104	24.706	1.1845e-06
3960.08	0.944696	0.915366	1.31543	-44.0966	6.72781	-0.0825911	-0.190864	43.9058	21.2608	1	9	0.0095749	0.00727893	0	-0.000408861	-0.103371	0.00808005	-8.69357	1.11006	1.09731	0.167785	-27.9431	2.31149	2.042	1.08315	0.545958	0.529008	0.76021	44.0966	-1.20345e-05
1808.26	1.07731	2.05577	2.32095	-62.3435	7.80809	-0.0812992	-0.161533	42.8138	33.5894	1	9	0.0106775	0.00460051	0	-0.000466257	-0.104479	0.00510073	-11.2597	1.10873	1.08739	0.216487	-46.3886	3.13833	2.1647	2.27226	0.199991	0.381631	0.430858	62.3435	-1.67984e-05
825.264	0.952678	4.26078	4.36599	-77.3964	10.2188	-0.0811835	-0.0381063	45.2625	43.1074	1	10	0.0110895	0.00253998	0	-0.000537106	-0.0876506	0.00303599	-14.3623	1.19528	1.15792	0.296492	-65.1498	5.02229	2.1106	4.55727	0.0499783	0.223524	0.229043	77.3964	-4.49967e-05
377.051	1.69756	8.51207	8.6797	-78.7215	11.1098	-0.0816358	-0.0332895	49.5889	47.6921	1	10	0.0106226	0.00122384	0	-0.000545614	-0.0846517	0.00185612	-37.942	1.51663	1.19606	0.932521	-72.966	9.87793	2.89363	9.44459	0.0225329	0.112986	0.115211	78.7215	-3.0164e-06
172.037	2.14364	17.7657	17.8946	-83.1198	11.9965	-0.081513	-0.0227425	52.0734	51.3261	1	10	0.0104381	0.000583309	0	-0.000549293	-0.069867	0.00149968	-76.2314	2.57099	0.611897	2.49711	-82.2559	20.4493	2.75554	20.2628	0.00669438	0.0554805	0.0558829	83.1198	-2.71948e-06
78.5176	6.34282	35.9469	36.5022	-79.9932	13.3427	-0.0806952	-0.00998566	56.3887	54.686	1	11	0.00959332	0.000262815	0	-0.000551833	-0.093935	0.00168221	-38.7124	6.40072	4.99445	4.00309	-74.1568	41.5275	11.3373	39.95	0.00476042	0.0269789	0.0273956	79.9932	-9.96617e-07
35.8372	10.8332	73.0459	73.8448	-81.5641	14.2392	-0.0807146	-0.000327766	60.7982	59.4898	1	11	0.00959376	0.000129918	0	-0.000552292	-0.0776605	0.00095273	47.5399	7.33333	4.95055	-5.41015	-76.8643	69.453	15.7838	67.6357	0.00198663	0.0133954	0.0135419	81.5641	1.6097e-07
16.367	16.4537	152.876	153.759	-83.857	15.3351	-0.0809918	-0.000679015	63.6083	62.8799	1	12	0.00975859	6.3467e-05	0	-0.000552528	-0.102989	0.00128066	-79.164	20.1784	3.79352	19.8186	-83.313	173.877	20.2473	172.694	0.000695963	0.00646636	0.0065037	83.857	1.59151e-07
7.46893	80.4707	300.949	311.521	-75.0299	16.0487	-0.0800337	-0.00123536	70.8059	66.0812	1	12	0.0102236	3.28184e-05	0	-0.000552775	-0.0848236	0.00124	-50.447	37.7836	24.0603	29.1325	-72.4279	346.237	104.531	330.081	0.000829205	0.00310111	0.00321005	75.0299	-2.49195e-07
3.4086	116.772	552.191	564.403	-78.0596	17.1324	-0.0808556	-0.000436757	84.5581	80.9386	1	12	0.00900334	1.5952e-05	0	-0.000552667	-0.0869057	0.000670161	11.508	42.0112	41.1667	-8.38141	-73.8051	566.28	157.939	543.81	0.000366573	0.00173345	0.00177178	78.0596	3.3829e-08
1.55627	331.596	1242.56	1286.05	-75.058	20.5841	-0.0803644	-0.000412738	82.303	76.8313	1	12	0.0105374	8.19363e-06	0	-0.000553134	-0.0704592	0.00132211	-65.118	161.359	67.8918	146.381	-73.9537	1445.25	399.487	1388.94	0.000200491	0.000751285	0.000777577	75.058	-2.59955e-07
0.710357	655.605	2264.38	2357.38	-73.8527	41.3838	-0.0809829	-0.000562234	98.9452	91.2924	1	13	0.0100916	4.28085e-06	0	-0.000555441	-0.07193	0.000559395	-67.1186	130.674	50.8093	120.391	-73.4997	2487.2	706.414	2384.77	0.000117973	0.000407466	0.0004242	73.8527	-1.82277e-06
0.324439	1198.05	4227.26	4393.75	-74.1767	107.762	-0.081098	-0.000365509	116.045	107.417	1	13	0.010113	2.30168e-06	0	-0.000563201	-0.129158	0.000724545	-64.5899	314.789	135.074	284.336	-73.5382	4704.44	1333.12	4511.6	6.20588e-05	0.000218972	0.000227596	74.1767	-3.43647e-06
0.147897	2906.11	7432.06	7980.03	-68.6434	250.416	-0.081116	-0.000151038	144.795	125.592	1	13	0.00976546	1.22374e-06	0	-0.000575264	-0.0901147	0.000579333	-51.8391	473.413	292.508	372.235	-67.7136	8434.34	3198.61	7804.29	4.56354e-05	0.000116708	0.000125313	68.6434	-5.62189e-06
0.0999041	5645.75	11202.3	12544.5	-63.2527	372.607	-0.0810903	0.000216944	142.21	113.405	1	13	0.0100768	8.03285e-07	0	-0.00057584	-0.0855303	0.000612786	-58.4163	762.85	399.538	649.854	-62.9757	13304.8	6045.29	11852.1	3.58767e-05	7.11864e-05	7.9716e-05	63.2527	-5.76652e-07

File: 2023_01_20_CoNiFeNx_400ºC_24h_electrode3_19012023_01_PEIS_C05.mpt
EC-Lab ASCII FILE
Nb header lines : 64

Potentio Electrochemical Impedance Spectroscopy

Run on channel : 5 (SN 30436)
User :
CE vs. WE compliance from -10 V to 10 V
Electrode connection : standard
Potential control : Ewe
Ewe ctrl range : min = -2.50 V, max = 2.50 V
Safety Limits :
	Do not start on E overload
Acquisition started on : 01/20/2023 10:11:15.490
Loaded Setting File :  C:\Users\grupogalan\Documents\EC-Lab\Data\ilario\20230118-ec\20230118_DJF1-IGB3-KOH_1M.mps
Saved on :
	File : 2023_01_20_CoNiFeNx_400ºC_24h_electrode3_19012023_01_PEIS_C05.mpr
	Directory : C:\Users\grupogalan\Documents\EC-Lab\Data\Lole Jurado\
	Host : 169.254.104.159
Device : VSP (SN 1176)
Address : USB
EC-Lab for windows v11.46 (software)
Internet server v11.40 (firmware)
Command interpretor v11.40 (firmware)
Electrode material :
Initial state :
Electrolyte :
Comments :
Electrode surface area : 0.001 cm²
Characteristic mass : 0.001 g
Equivalent Weight : 0.000 g/eq.
Density : 0.000 g/cm3
Volume (V) : 0.001 cm³
Record Ece
Cycle Definition : Charge/Discharge alternance
Mode                Single sine
E (V)               0.0000
vs.                 Eoc
tE (h:m:s)          0:00:0.0000
record              0
dI                  0.000
unit dI             mA
dt (s)              0.000
fi                  200.000
unit fi             kHz
ff                  100.000
unit ff             mHz
Nd                  6
Points              per decade
spacing             Logarithmic
Va (mV)             10.0
pw                  0.10
Na                  2
corr                0
E range min (V)     -2.500
E range max (V)     2.500
I Range             Auto
Bandwidth           5
nc cycles           0
goto Ns'            0
nr cycles           0
inc. cycle          0

freq/Hz	Re(Z)/Ohm	-Im(Z)/Ohm	|Z|/Ohm	Phase(Z)/deg	time/s	<Ewe>/V	<I>/mA	Cs/µF	Cp/µF	cycle number	I Range	|Ewe|/V	|I|/A	Ns	(Q-Qo)/mA.h	<Ece>/V	|Ece|/V	Phase(Zce)/deg	|Zce|/Ohm	Re(Zce)/Ohm	-Im(Zce)/Ohm	Phase(Zwe-ce)/deg	|Zwe-ce|/Ohm	Re(Zwe-ce)/Ohm	-Im(Zwe-ce)/Ohm	Re(Y)/Ohm-1	Im(Y)/Ohm-1	|Y|/Ohm-1	Phase(Y)/deg	dq/mA.h
199998	1.13997	-1.20609	1.65958	46.6144	2.51052	-0.621744	-0.128139	-0.659802	-0.348482	1	9	0.00571293	0.0034424	0	-2.36523e-05	0.306549	0.00232682	-14.5023	0.67593	0.654393	0.169266	30.0203	2.07238	1.79436	-1.03683	0.413904	-0.437911	0.602563	-46.6144	-2.36523e-05
91291.2	0.802526	-0.23125	0.83518	16.0745	3.26455	-0.621676	-0.14409	-7.53893	-0.57798	1	9	0.0100617	0.0120473	0	-0.000114662	0.305976	0.0123238	11.6163	1.02295	1.002	-0.205977	13.62	1.85674	1.80453	-0.437227	1.15053	-0.331529	1.19735	-16.0745	-8.79098e-05
41669.8	0.801796	-0.0205197	0.802058	1.46601	4.14052	-0.621762	-0.149532	-186.135	-0.121831	1	9	0.00945165	0.0117842	0	-0.00010178	0.32036	0.0123967	5.53926	1.05197	1.04706	-0.101545	3.77728	1.85288	1.84885	-0.122064	1.24638	-0.0318977	1.24679	-1.46601	-1.13714e-05
19020.9	0.836125	0.106435	0.842872	-7.25446	4.89456	-0.621692	-0.00857807	78.615	1.25357	1	9	0.0111833	0.013268	0	-0.000237011	0.299195	0.0137028	2.08379	1.03277	1.03208	-0.0375524	-2.11158	1.86948	1.86821	0.0688823	1.17692	0.149816	1.18642	7.25446	-0.000119782
8684.68	0.85924	0.307364	0.91256	-19.6829	5.64854	-0.621713	-0.145209	59.623	6.76389	1	9	0.0107021	0.0117276	0	-0.000269961	0.312375	0.012085	-2.25825	1.03048	1.02968	0.0406046	-10.4378	1.9207	1.88892	0.347968	1.03179	0.369088	1.09582	19.6829	-1.95715e-06
3960.08	0.936647	0.61904	1.12273	-33.4611	6.20384	-0.621632	-0.215052	64.9229	19.7372	1	9	0.0105025	0.00935448	0	-0.000282443	0.311229	0.0101638	-4.40261	1.08651	1.08331	0.0834058	-19.1753	2.13861	2.01996	0.702446	0.743065	0.4911	0.890688	33.4611	-1.00296e-05
1808.26	1.04594	1.27774	1.65124	-50.6966	7.07903	-0.621807	-0.192616	68.8837	41.2456	1	9	0.0100956	0.00611391	0	-0.00031765	0.314763	0.00725359	-9.7595	1.18641	1.16924	0.201111	-33.727	2.66346	2.21518	1.47885	0.383605	0.468618	0.605604	50.6966	-1.74238e-05
825.264	1.31515	2.45819	2.78789	-61.8529	7.96876	-0.621947	-0.205511	78.4534	60.9947	1	9	0.00962163	0.00345122	0	-0.00036942	0.309605	0.00421121	-15.7725	1.22021	1.17427	0.331674	-48.2572	3.73906	2.48942	2.78987	0.169209	0.316275	0.358694	61.8529	-2.42193e-05
377.051	1.6967	4.85945	5.14714	-70.7531	9.10378	-0.621653	-0.0485265	86.8625	77.4239	1	10	0.00950336	0.00184634	0	-0.000395566	0.328764	0.00222675	-28.0753	1.20603	1.06412	0.567599	-63.0369	6.08893	2.76082	5.42705	0.0640432	0.183424	0.194283	70.7531	-4.99076e-06
172.037	2.66701	10.0683	10.4155	-75.1636	9.99055	-0.621733	-0.0493356	91.8846	85.86	1	10	0.00966634	0.000928069	0	-0.000407572	0.32907	0.0018304	-41.0207	1.97227	1.48802	1.29446	-69.914	12.0986	4.15503	11.3628	0.0245845	0.0928095	0.0960104	75.1636	-7.47193e-06
78.5176	5.29286	19.8609	20.5541	-75.0777	10.8846	-0.622101	-0.057463	102.059	95.2918	1	10	0.00959439	0.000466787	0	-0.000420602	0.332088	0.00116579	-46.596	2.49747	1.71611	1.81448	-72.0809	22.7805	7.00897	21.6754	0.0125283	0.0470113	0.0486521	75.0777	-7.23737e-06
35.8372	11.468	38.9377	40.5914	-73.5892	12.0312	-0.621925	-0.0312312	114.056	104.952	1	11	0.00960348	0.000236589	0	-0.000431449	0.334953	0.00134502	-67.9838	5.68502	2.13114	5.27046	-72.9013	46.2525	13.5991	44.2082	0.00696017	0.0236321	0.0246358	73.5892	-3.50321e-06
16.367	24.06	73.3863	77.2298	-71.848	12.9002	-0.621756	-0.0325144	132.506	119.646	1	11	0.0093744	0.000121383	0	-0.000439284	0.337666	0.00124659	-60.728	10.2698	5.0215	8.95846	-70.5484	87.3292	29.0815	82.3448	0.00403391	0.012304	0.0129484	71.848	-3.93505e-06
7.46893	53.4228	140.449	150.267	-69.1747	13.7917	-0.621821	-0.0311047	151.72	132.543	1	12	0.00945254	6.29052e-05	0	-0.000446886	0.339881	0.000978332	-76.1607	15.5525	3.72014	15.101	-69.8287	165.714	57.1429	155.55	0.00236593	0.00622007	0.00665484	69.1747	-3.96072e-06
3.4086	127.892	251.174	281.859	-63.0158	14.8754	-0.62179	-0.0311715	185.896	147.623	1	12	0.00933496	3.31192e-05	0	-0.00045639	0.357283	0.000799038	-54.3533	24.1261	14.0603	19.6055	-62.3348	305.732	141.952	270.779	0.00160983	0.00316162	0.00354787	63.0158	-5.93872e-06
1.55627	294.062	383.402	483.186	-52.5125	17.185	-0.621734	-0.0337881	266.735	167.942	1	12	0.00958461	1.98363e-05	0	-0.000477771	0.354055	0.00170748	-45.6116	86.0786	60.2135	61.513	-51.4705	568.735	354.275	444.915	0.00125953	0.00164219	0.00206959	52.5125	-1.27247e-05
0.710357	587.628	514.743	781.196	-41.2173	23.6387	-0.621944	-0.0372484	435.265	188.979	1	13	0.00951631	1.21817e-05	0	-0.000541082	0.375028	0.00270025	-87.1798	221.664	10.9063	221.395	-50.8863	948.759	598.535	736.138	0.000962903	0.000843471	0.00128009	41.2173	-4.40666e-05
0.324439	969.234	623.362	1152.39	-32.7471	34.5387	-0.62184	-0.040716	786.948	230.266	1	13	0.00945625	8.20579e-06	0	-0.000659932	0.407081	0.00271209	-141.677	330.509	-259.293	204.947	-49.4002	1090.92	709.941	828.309	0.000729848	0.000469401	0.000867764	32.7471	-7.23406e-05
0.147897	1451.78	759.688	1638.54	-27.6221	58.4066	-0.621799	-0.0435294	1416.53	304.498	1	13	0.00947785	5.78434e-06	0	-0.000943686	0.452275	0.00165785	110.338	286.611	-99.6129	-268.743	-19.9549	1438.54	1352.17	490.944	0.000540742	0.000282958	0.000610301	27.6221	-0.000171484
0.0999041	1773.99	796.732	1944.69	-24.1857	79.48	-0.621784	-0.0442342	1999.51	335.62	1	13	0.00949289	4.88144e-06	0	-0.00120249	0.476916	0.00222308	42.0867	455.414	337.977	-305.244	-13.1005	2168.4	2111.97	491.488	0.000469083	0.000210674	0.00051422	24.1857	-0.000258805

File: 2023_01_20_CoNiFeNx_400ºC_24h_electrode3_19012023_02_CV_C05.mpt
EC-Lab ASCII FILE
Nb header lines : 58

Cyclic Voltammetry

Run on channel : 5 (SN 30436)
User :
CE vs. WE compliance from -10 V to 10 V
Electrode connection : standard
Potential control : Ewe
Ewe ctrl range : min = -2.50 V, max = 2.50 V
Safety Limits :
	Do not start on E overload
Acquisition started on : 01/20/2023 10:11:15.490
Loaded Setting File :  C:\Users\grupogalan\Documents\EC-Lab\Data\ilario\20230118-ec\20230118_DJF1-IGB3-KOH_1M.mps
Saved on :
	File : 2023_01_20_CoNiFeNx_400ºC_24h_electrode3_19012023_02_CV_C05.mpr
	Directory : C:\Users\grupogalan\Documents\EC-Lab\Data\Lole Jurado\
	Host : 169.254.104.159
Device : VSP (SN 1176)
Address : USB
EC-Lab for windows v11.46 (software)
Internet server v11.40 (firmware)
Command interpretor v11.40 (firmware)
Electrode material :
Initial state :
Electrolyte :
Comments :
Electrode surface area : 0.001 cm²
Characteristic mass : 0.001 g
Equivalent Weight : 0.000 g/eq.
Density : 0.000 g/cm3
Volume (V) : 0.001 cm³
Record Ece
Cycle Definition : Charge/Discharge alternance
Ei (V)              0.000
vs.                 Eoc
dE/dt               10.000
dE/dt unit          mV/s
E1 (V)              1.000
vs.                 Ref
Step percent        50
N                   10
E range min (V)     -2.500
E range max (V)     2.500
I Range             Auto
I Range min         Unset
I Range max         Unset
I Range init        Unset
Bandwidth           5
E2 (V)              0.000
vs.                 Ref
nc cycles           2
Reverse Scan        1
Ef (V)              0.000
vs.                 Eoc

mode	ox/red	error	control changes	counter inc.	time/s	control/V	Ewe/V	<I>/mA	cycle number	(Q-Qo)/C	I Range	<Ece>/V	P/W	Ewe-Ece/V
2	0	0	1	0	79.6208	-0.621653	-0.619851	-0.0696301	1	0.0000000E+000	13	0.477096	4.31603e-05	-1.09695
2	0	0	1	0	86.1362	-0.556498	-0.556385	-0.0228339	1	-0.000190993	13	0.464304	1.27044e-05	-1.02069
2	0	0	1	0	92.6366	-0.491493	-0.491722	-0.00245233	1	-0.000240349	13	0.435647	1.20586e-06	-0.927369
2	1	0	0	0	99.1372	-0.426489	-0.426598	0.0102819	1	-0.000183099	13	0.39963	-4.38622e-06	-0.826228
2	1	0	0	0	105.638	-0.361484	-0.361481	0.0249479	1	-5.54096e-05	13	0.359526	-9.0182e-06	-0.721007
2	1	0	0	0	112.138	-0.296479	-0.295998	0.02317	1	0.000113028	13	0.321609	-6.85829e-06	-0.617607
2	1	0	1	0	118.639	-0.231475	-0.231519	0.024924	1	0.000279664	13	0.289601	-5.7704e-06	-0.52112
2	1	0	1	0	125.139	-0.16647	-0.167195	0.0272762	1	0.000455447	13	0.25906	-4.56045e-06	-0.426255
2	1	0	1	0	131.639	-0.101465	-0.102468	0.0339543	1	0.000656968	13	0.224021	-3.47923e-06	-0.326489
2	1	0	0	0	138.14	-0.0364605	-0.0367782	0.0362223	1	0.000890169	13	0.184904	-1.33219e-06	-0.221682
2	1	0	0	0	144.64	0.0285442	0.0285806	0.0371744	1	0.0011336	13	0.146889	1.06246e-06	-0.118308
2	1	0	0	0	151.141	0.0935489	0.0941027	0.036725	1	0.00137699	13	0.111548	3.45593e-06	-0.0174456
2	1	0	1	0	157.641	0.158554	0.158439	0.0383023	1	0.0016211	13	0.0781688	6.06859e-06	0.0802707
2	1	0	1	0	164.142	0.223558	0.22337	0.0503145	1	0.00190591	13	0.0360867	1.12388e-05	0.187284
2	1	0	1	0	170.642	0.288563	0.288564	0.0707426	1	0.00229808	13	-0.0253788	2.04138e-05	0.313942
2	1	0	0	0	177.173	0.353868	0.353584	0.103212	1	0.00286239	12	-0.109076	3.64942e-05	0.46266
2	1	0	0	0	183.673	0.418872	0.418156	0.15626	1	0.00369537	12	-0.177635	6.53413e-05	0.595791
2	1	0	0	0	190.174	0.483877	0.48397	0.250823	1	0.00499363	12	-0.212357	0.000121391	0.696327
2	1	0	1	0	196.674	0.548881	0.549308	0.401168	1	0.00708625	12	-0.254047	0.000220365	0.803355
2	1	0	1	0	203.175	0.613886	0.613337	0.721063	1	0.0105113	12	-0.338579	0.000442254	0.951916
2	1	0	1	0	209.705	0.679191	0.678824	2.68162	1	0.0199088	11	-0.75807	0.00182034	1.43689
2	1	0	0	0	216.206	0.744196	0.743833	9.26032	1	0.055691	11	-1.36806	0.00688813	2.11189
2	1	0	0	0	222.736	0.8095	0.809056	20.7977	1	0.151912	10	-1.4096	0.0168265	2.21866
2	1	0	0	0	229.236	0.874505	0.874637	33.9968	1	0.330296	10	-1.44624	0.0297349	2.32087
2	1	0	1	0	235.737	0.93951	0.939137	46.5696	1	0.593057	10	-1.47443	0.0437353	2.41356
2	1	0	1	0	242.138	0.996414	0.996743	57.0861	1	0.931595	10	-1.49475	0.0569002	2.49149
2	1	0	0	0	248.638	0.931409	0.93133	36.5107	1	1.23091	10	-1.45212	0.0340035	2.38345
2	1	0	0	0	255.139	0.866404	0.866081	22.0043	1	1.41853	10	-1.415	0.0190575	2.28108
2	1	0	0	0	261.639	0.8014	0.801756	11.81	1	1.52627	10	-1.37736	0.0094687	2.17912
2	1	0	1	0	268.14	0.736395	0.737265	5.18805	1	1.57972	10	-1.33179	0.00382496	2.06906
2	1	0	1	0	274.67	0.67109	0.670577	1.6252	1	1.60043	11	-1.22908	0.00108982	1.89966
2	1	0	1	0	281.201	0.605786	0.605931	0.324718	1	1.6059	12	-0.85818	0.000196757	1.46411
2	1	0	0	0	287.731	0.540481	0.541055	0.0337572	1	1.60679	13	-0.618813	1.82645e-05	1.15987
2	0	0	0	0	294.232	0.475476	0.475795	-0.0181156	1	1.60679	13	-0.444621	-8.6193e-06	0.920416
2	0	0	0	0	300.732	0.410472	0.411103	-0.031628	1	1.60661	13	-0.330946	-1.30024e-05	0.742049
2	0	0	1	0	307.233	0.345467	0.345549	-0.0357229	1	1.60638	13	-0.269426	-1.2344e-05	0.614974
2	0	0	1	0	313.733	0.280462	0.280486	-0.0358426	1	1.60615	13	-0.232277	-1.00534e-05	0.512763
2	0	0	1	0	320.233	0.215458	0.214467	-0.0358145	1	1.60591	13	-0.205223	-7.68105e-06	0.41969
2	0	0	0	0	326.734	0.150453	0.15063	-0.035512	1	1.60568	13	-0.184997	-5.34919e-06	0.335627
2	0	0	0	0	333.234	0.0854483	0.0862417	-0.0339624	1	1.60545	13	-0.170649	-2.92898e-06	0.25689
2	0	0	0	0	339.735	0.0204436	0.0210868	-0.0315269	1	1.60524	13	-0.160692	-6.648e-07	0.181779
2	0	0	1	1	346.136	0.0435453	0.044102	-0.014081	2	1.60509	13	-0.160592	-6.21e-07	0.204694
2	0	0	0	1	352.636	0.10855	0.108733	-0.00499959	2	1.60503	13	-0.163581	-5.43619e-07	0.272314
2	0	0	0	1	359.137	0.173555	0.173661	0.000324234	2	1.60501	13	-0.164697	5.63067e-08	0.338357
2	1	0	0	1	365.637	0.238559	0.238558	0.00530684	2	1.60503	13	-0.16548	1.26599e-06	0.404038
2	1	0	1	1	372.138	0.303564	0.303771	0.0118721	2	1.60509	13	-0.167716	3.60641e-06	0.471487
2	1	0	1	1	378.638	0.368569	0.368959	0.0219604	2	1.6052	13	-0.172789	8.10249e-06	0.541748
2	1	0	1	1	385.139	0.433574	0.433595	0.0398593	2	1.6054	13	-0.182877	1.72828e-05	0.616472
2	1	0	0	1	391.639	0.498578	0.498738	0.0681632	2	1.60575	13	-0.20004	3.39956e-05	0.698778
2	1	0	0	1	398.17	0.563883	0.563833	0.122262	2	1.60635	12	-0.229174	6.89352e-05	0.793007
2	1	0	1	1	404.67	0.628887	0.628843	0.486988	2	1.60788	12	-0.367655	0.000306239	0.996498
2	1	0	1	1	411.201	0.694192	0.693586	2.93852	2	1.61721	11	-1.05245	0.00203812	1.74604
2	1	0	1	1	417.701	0.759197	0.759537	9.88374	2	1.65613	11	-1.36588	0.00750707	2.12542
2	1	0	0	1	424.232	0.824501	0.825276	21.5984	2	1.75682	10	-1.41265	0.0178246	2.23793
2	1	0	0	1	430.732	0.889506	0.889926	35.7119	2	1.94265	10	-1.45426	0.031781	2.34418
2	1	0	0	1	437.232	0.954511	0.953196	49.9218	2	2.22154	10	-1.48772	0.0475852	2.44092
2	1	0	1	1	443.633	0.981413	0.982339	52.5373	2	2.57343	10	-1.49377	0.0516094	2.4761
2	1	0	1	1	450.134	0.916408	0.916297	34.5436	2	2.85358	10	-1.45521	0.0316522	2.3715
2	1	0	1	1	456.634	0.851403	0.850955	21.007	2	3.03216	10	-1.41926	0.0178761	2.27021
2	1	0	0	1	463.135	0.786399	0.786801	10.9525	2	3.13414	10	-1.38137	0.00861745	2.16817
2	1	0	0	1	469.665	0.721094	0.720567	4.39998	2	3.18223	11	-1.33058	0.00317048	2.05114
2	1	0	0	1	476.166	0.656089	0.655498	1.20945	2	3.19885	11	-1.17555	0.000792794	1.83104
2	1	0	1	1	482.696	0.590784	0.590813	0.204681	2	3.20269	12	-0.774865	0.000120928	1.36568
[...]
2	0	0	1	0	547.631	0.0585464	0.0590652	-0.015188	3	3.20098	13	-0.156257	-8.97082e-07	0.215323
2	0	0	1	0	554.132	0.123551	0.12386	-0.00604388	3	3.20091	13	-0.160118	-7.48598e-07	0.283979
2	0	0	0	0	560.632	0.188556	0.189069	-0.000326179	3	3.2009	13	-0.161432	-6.16704e-08	0.350501
2	0	0	0	0	567.133	0.25356	0.253268	0.00517324	3	3.20091	13	-0.163093	1.31022e-06	0.416361
2	1	0	0	0	573.633	0.318565	0.31845	0.0125672	3	3.20097	13	-0.166202	4.00202e-06	0.484652
2	1	0	1	0	580.134	0.38357	0.383468	0.0246064	3	3.20109	13	-0.172313	9.43576e-06	0.555781
2	1	0	1	0	586.634	0.448574	0.449299	0.046152	3	3.20131	13	-0.183882	2.0736e-05	0.633181
2	1	0	1	0	593.135	0.513579	0.513805	0.0798386	3	3.20172	13	-0.202718	4.10215e-05	0.716524
2	1	0	0	0	599.665	0.578884	0.578847	0.152885	3	3.20244	12	-0.237493	8.84969e-05	0.81634
2	1	0	0	0	606.166	0.643888	0.64303	0.798258	3	3.20479	12	-0.499376	0.000513304	1.14241
2	1	0	0	0	612.696	0.709193	0.708904	4.22779	3	3.21893	11	-1.30979	0.0029971	2.0187
2	1	0	1	0	619.227	0.774498	0.774006	12.6252	3	3.27115	10	-1.38785	0.00977197	2.16185
2	1	0	1	0	625.727	0.839502	0.839438	25.6413	3	3.3936	10	-1.43476	0.0215243	2.27419
2	1	0	1	0	632.227	0.904507	0.904494	40.6128	3	3.6087	10	-1.47615	0.036734	2.38065
2	1	0	0	0	638.728	0.969512	0.9696	55.5395	3	3.92136	10	-1.51	0.0538511	2.4796
2	1	0	0	0	645.129	0.966412	0.966956	50.7262	3	4.2891	10	-1.49996	0.04905	2.46691
2	1	0	1	0	651.629	0.901407	0.901857	33.6326	3	4.56082	10	-1.46306	0.0303318	2.36492
2	1	0	1	0	658.13	0.836402	0.836372	20.1807	3	4.73397	10	-1.42673	0.0168786	2.2631
2	1	0	1	0	664.63	0.771397	0.771056	9.88288	3	4.82963	10	-1.38546	0.00762025	2.15652
2	1	0	0	0	671.161	0.706093	0.706419	3.55993	3	4.8712	11	-1.32645	0.0025148	2.03287
2	1	0	0	0	677.661	0.641088	0.641135	0.850889	3	4.88395	11	-1.07628	0.000545535	1.71742
2	1	0	0	0	684.192	0.575783	0.576302	0.119352	3	4.8865	12	-0.699673	6.8783e-05	1.27598
2	0	0	1	0	690.722	0.510479	0.511138	-0.0124606	3	4.88671	13	-0.479704	-6.3691e-06	0.990842
2	0	0	1	0	697.223	0.445474	0.445001	-0.0411066	3	4.88651	13	-0.321233	-1.82925e-05	0.766233
2	0	0	1	0	703.723	0.380469	0.379708	-0.0492574	3	4.8862	13	-0.24786	-1.87034e-05	0.627568
2	0	0	0	0	710.224	0.315465	0.315723	-0.0501148	3	4.88587	13	-0.209957	-1.58224e-05	0.52568
2	0	0	0	0	716.724	0.25046	0.250712	-0.0487593	3	4.88555	13	-0.18738	-1.22245e-05	0.438092
2	0	0	0	0	723.224	0.185455	0.185381	-0.0482583	3	4.88523	13	-0.171095	-8.9462e-06	0.356477
2	0	0	1	0	729.725	0.120451	0.120776	-0.0476357	3	4.88492	13	-0.158114	-5.75326e-06	0.27889
2	0	0	1	0	736.225	0.0554461	0.0559354	-0.0456212	3	4.88461	13	-0.148838	-2.55184e-06	0.204773
2	0	0	0	1	742.626	-0.00855845	-0.00819541	-0.0424366	3	4.88433	13	-0.142443	3.47785e-07	0.134248
2	0	0	1	1	749.127	-0.0735631	-0.0727625	-0.0390511	3	4.88407	13	-0.138259	2.84146e-06	0.0654963
2	0	0	1	1	755.627	-0.138568	-0.138615	-0.0372592	3	4.88382	13	-0.134364	5.16467e-06	-0.00425076
2	0	0	1	1	762.128	-0.203573	-0.203343	-0.037572	3	4.88358	13	-0.130142	7.64001e-06	-0.0732009
2	0	0	0	1	768.628	-0.268577	-0.268293	-0.0394553	3	4.88333	13	-0.124751	1.05856e-05	-0.143542
2	0	0	0	1	775.129	-0.333582	-0.33312	-0.0427261	3	4.88306	13	-0.118679	1.42329e-05	-0.214441
2	0	0	0	1	781.629	-0.398587	-0.398998	-0.0473089	3	4.88276	13	-0.111443	1.88762e-05	-0.287555
2	0	0	1	1	788.13	-0.463591	-0.463989	-0.0532895	3	4.88243	13	-0.10308	2.47257e-05	-0.360909
2	0	0	1	1	794.63	-0.528596	-0.529033	-0.0612379	3	4.88206	13	-0.0927216	3.23969e-05	-0.436312
2	0	0	1	1	801.13	-0.593601	-0.593289	-0.0721797	3	4.88162	13	-0.0795947	4.28235e-05	-0.513695
2	0	0	1	1	803.956	-0.621853	-0.622169	-0.0841307	3	4.8814	13	-0.0729165	5.23435e-05	-0.549253