Folder: EC-Lab-Processing/Data_Lola/CoNiFeNx_400ºC_24h_13102022/Electrodes_19012023

File: 2023_01_20_CoNiFeNx_400ºC_24h_electrode1_19012023_1_01_CV_C01.mpt
EC-Lab ASCII FILE
Nb header lines : 57

Cyclic Voltammetry

Run on channel : 1 (SN 21648)
User :
CE vs. WE compliance from -10 V to 10 V
Electrode connection : standard
Potential control : Ewe
Ewe ctrl range : min = -2.50 V, max = 2.50 V
Safety Limits :
	Do not start on E overload
Acquisition started on : 01/20/2023 16:29:26.125
Loaded Setting File :  C:\Users\grupogalan\Documents\EC-Lab\Data\Lole Jurado\2023_01_20_CoNiFeNx_400ºC_24h_electrode2_19012023_1.mps
Saved on :
	File : 2023_01_20_CoNiFeNx_400ºC_24h_electrode1_19012023_1_01_CV_C01.mpr
	Directory : C:\Users\grupogalan\Documents\EC-Lab\Data\Lole Jurado\
	Host : 169.254.104.159
Device : VSP (SN 1176)
Address : USB
EC-Lab for windows v11.46 (software)
Internet server v11.40 (firmware)
Command interpretor v11.40 (firmware)
Electrode material :
Initial state :
Electrolyte :
Comments :
Electrode surface area : 0.000 cm²
Characteristic mass : 0.001 g
Equivalent Weight : 0.000 g/eq.
Density : 0.000 g/cm3
Volume (V) : 0.001 cm³
Cycle Definition : Charge/Discharge alternance
Ei (V)              0.000
vs.                 Eoc
dE/dt               10.000
dE/dt unit          mV/s
E1 (V)              1.000
vs.                 Ref
Step percent        50
N                   10
E range min (V)     -2.500
E range max (V)     2.500
I Range             Auto
I Range min         Unset
I Range max         Unset
I Range init        Unset
Bandwidth           5
E2 (V)              0.000
vs.                 Ref
nc cycles           2
Reverse Scan        1
Ef (V)              0.000
vs.                 Eoc

mode	ox/red	error	control changes	counter inc.	time/s	control/V	Ewe/V	<I>/mA	cycle number	(Q-Qo)/C	I Range	P/W
2	1	0	0	0	0.000000000000000E+000	-0.0714016	-0.0718247	0.048122	1	0.0000000E+000	13	-3.45635e-06
2	1	0	1	0	4.3852	-0.0275508	-0.0310001	0.00270913	1	1.01358e-05	12	-8.39833e-08
2	1	0	1	0	8.7852	0.01645	0.0114104	0.00521097	1	2.97164e-05	12	5.94595e-08
2	1	0	0	0	13.1854	0.0604508	0.0606075	0.00744105	1	5.95248e-05	12	4.50984e-07
2	1	0	0	0	17.5854	0.104452	0.103316	0.0123332	1	0.00010381	12	1.27421e-06
2	1	0	1	0	21.9856	0.148452	0.147015	0.0224994	1	0.000180914	12	3.30775e-06
2	1	0	1	0	26.3856	0.192453	0.191606	0.0315678	1	0.000303883	12	6.04856e-06
2	1	0	1	0	30.7856	0.236454	0.234379	0.0411602	1	0.000465983	12	9.64709e-06
2	1	0	0	0	35.1858	0.280455	0.278906	0.0540046	1	0.000677601	12	1.50622e-05
2	1	0	0	0	39.5858	0.324456	0.324545	0.0757092	1	0.000966022	12	2.4571e-05
2	1	0	1	0	43.986	0.368457	0.367976	0.115493	1	0.00138876	12	4.24986e-05
2	1	0	1	0	48.386	0.412457	0.40993	0.173771	1	0.00202644	12	7.12341e-05
2	1	0	1	0	52.786	0.456458	0.456534	0.262851	1	0.00298313	12	0.00012
2	1	0	0	0	57.1862	0.500459	0.496956	0.37338	1	0.00439638	12	0.000185554
2	1	0	0	0	61.5862	0.54446	0.541588	0.501716	1	0.00632371	12	0.000271723
2	1	0	1	0	65.9864	0.588461	0.585759	0.718266	1	0.00893607	12	0.000420731
2	1	0	1	0	70.4164	0.632761	0.632358	1.96221	1	0.0141005	11	0.00124082
2	1	0	0	0	74.8166	0.676762	0.676118	6.36943	1	0.0311054	11	0.00430649
2	1	0	0	0	79.2466	0.721063	0.719715	14.1913	1	0.0755489	10	0.0102137
2	1	0	0	0	83.6466	0.765064	0.76673	24.5934	1	0.160064	10	0.0188565
2	1	0	1	0	88.0468	0.809065	0.807424	37.1168	1	0.295195	10	0.029969
2	1	0	1	0	92.4468	0.853065	0.854247	51.1216	1	0.488894	10	0.0436705
2	1	0	0	0	96.847	0.897066	0.89635	66.1017	1	0.746682	10	0.0592502
2	1	0	0	0	101.247	0.941067	0.941185	81.5749	1	1.07173	10	0.0767771
2	1	0	0	0	105.647	0.985068	0.983092	97.4654	1	1.46581	10	0.0958174
2	1	0	0	0	109.898	0.972468	0.972066	90.8856	1	1.88221	10	0.0883468
2	1	0	0	0	114.298	0.928467	0.927867	73.4164	1	2.24321	10	0.0681207
2	1	0	0	0	118.698	0.884466	0.883173	57.4623	1	2.53057	10	0.0507492
2	1	0	1	0	123.098	0.840465	0.841976	43.3044	1	2.75146	10	0.0364612
2	1	0	1	0	127.498	0.796464	0.794546	30.8613	1	2.91397	10	0.0245207
2	1	0	0	0	131.898	0.752464	0.754587	20.3374	1	3.02586	10	0.0153463
2	1	0	0	0	136.298	0.708463	0.709278	11.8465	1	3.0958	10	0.00840249
2	1	0	1	0	140.698	0.664462	0.663491	5.62446	1	3.13335	10	0.00373178
2	1	0	1	0	145.128	0.620161	0.61867	1.85172	1	3.14896	11	0.0011456
2	1	0	1	0	149.558	0.57586	0.57538	0.336448	1	3.1531	12	0.000193586
2	1	0	0	0	153.959	0.53186	0.532099	-0.00269366	1	3.1536	12	-1.43329e-06
2	1	0	0	0	158.359	0.487859	0.486904	-0.0657875	1	3.1534	12	-3.20322e-05
2	0	0	1	0	162.759	0.443858	0.443039	-0.0865225	1	3.15303	12	-3.83328e-05
2	0	0	1	0	167.159	0.399857	0.399831	-0.0935067	1	3.15262	12	-3.73868e-05
2	0	0	1	0	171.559	0.355856	0.354129	-0.0967411	1	3.15219	12	-3.42588e-05
2	0	0	0	0	175.959	0.311855	0.310423	-0.0956248	1	3.15176	12	-2.96842e-05
2	0	0	0	0	180.359	0.267855	0.270756	-0.085001	1	3.15136	12	-2.30145e-05
2	0	0	1	0	184.759	0.223854	0.219678	-0.0717105	1	3.15101	12	-1.57532e-05
2	0	0	1	0	189.159	0.179853	0.177944	-0.0582208	1	3.15072	12	-1.03601e-05
2	0	0	0	0	193.559	0.135852	0.13804	-0.0475103	1	3.15049	12	-6.55835e-06
2	0	0	0	0	197.959	0.0918514	0.091319	-0.0395234	1	3.15029	12	-3.60924e-06
2	0	0	0	0	202.359	0.0478506	0.0468051	-0.0341061	1	3.15013	12	-1.59634e-06
2	0	0	1	0	206.76	0.00384976	0.00341451	-0.0308083	1	3.14999	12	-1.05195e-07
2	0	0	1	1	211	0.0385504	0.0393789	-0.0162796	2	3.14989	12	-6.41074e-07
2	0	0	0	1	215.4	0.0825512	0.0848666	-0.00949716	2	3.14984	12	-8.05991e-07
2	0	0	0	1	219.8	0.126552	0.127612	-0.00466806	2	3.14981	12	-5.95701e-07
2	0	0	1	1	224.2	0.170553	0.168789	0.00233632	2	3.14981	12	3.94345e-07
2	1	0	1	1	228.6	0.214554	0.214897	0.010348	2	3.14984	12	2.22375e-06
2	1	0	0	1	233.001	0.258554	0.25984	0.0217372	2	3.14991	12	5.64819e-06
2	1	0	0	1	237.401	0.302555	0.302931	0.0408509	2	3.15005	12	1.2375e-05
2	1	0	0	1	241.801	0.346556	0.344472	0.0694095	2	3.1503	12	2.39096e-05
2	1	0	1	1	246.201	0.390557	0.38971	0.108307	2	3.15069	12	4.22084e-05
2	1	0	1	1	250.601	0.434558	0.435923	0.152991	2	3.15128	12	6.66924e-05
2	1	0	0	1	255.001	0.478559	0.476216	0.192422	2	3.15204	12	9.16346e-05
2	1	0	0	1	259.401	0.522559	0.523019	0.240457	2	3.153	12	0.000125764
2	1	0	1	1	263.801	0.566561	0.565186	0.339014	2	3.15423	12	0.000191606
2	1	0	1	1	268.231	0.610861	0.607099	1.00716	2	3.15675	11	0.000611449
2	1	0	1	1	272.631	0.654862	0.653912	3.95297	2	3.16653	11	0.0025849
2	1	0	0	1	277.031	0.698863	0.700583	10.1998	2	3.19652	11	0.00714581
2	1	0	0	1	281.461	0.743163	0.74345	19.5992	2	3.26152	10	0.014571
2	1	0	1	1	285.862	0.787164	0.784443	31.5034	2	3.37304	10	0.0247126
2	1	0	1	1	290.262	0.831165	0.830424	45.4799	2	3.54169	10	0.0377676
2	1	0	1	1	294.662	0.875166	0.874596	60.6867	2	3.77476	10	0.0530763
2	1	0	0	1	299.062	0.919167	0.919202	76.7106	2	4.07701	10	0.0705125
2	1	0	0	1	303.462	0.963168	0.959465	93.377	2	4.4512	10	0.089592
2	1	0	1	1	307.702	0.994468	0.996565	104.72	2	4.88016	10	0.104361
2	1	0	0	1	312.103	0.950467	0.95095	86.7414	2	5.30142	10	0.0824867
2	1	0	0	1	316.503	0.906466	0.906073	69.411	2	5.64439	10	0.0628914
2	1	0	1	1	320.903	0.862466	0.863703	53.653	2	5.91451	10	0.0463402
2	1	0	1	1	325.303	0.818465	0.820806	39.3584	2	6.11844	10	0.0323057
2	1	0	0	1	329.703	0.774464	0.776379	26.8534	2	6.26334	10	0.0208484
2	1	0	0	1	334.103	0.730463	0.728784	16.5224	2	6.3579	10	0.0120413
2	1	0	0	1	338.503	0.686462	0.686747	8.6762	2	6.41237	10	0.00595836
2	1	0	1	1	342.933	0.642162	0.64105	3.45892	2	6.43821	11	0.00221734
2	1	0	1	1	347.333	0.598161	0.59861	0.895899	2	6.44692	11	0.000536295
[...]
2	0	0	1	1	391.364	0.157853	0.156667	-0.0614414	2	6.44508	12	-9.62583e-06
2	0	0	0	1	395.764	0.113852	0.112059	-0.0497375	2	6.44483	12	-5.57352e-06
2	0	0	0	1	400.164	0.069851	0.0668573	-0.0416199	2	6.44462	12	-2.7826e-06
2	0	0	1	1	404.564	0.0258502	0.0229056	-0.0362082	2	6.44445	12	-8.29371e-07
2	0	0	1	0	408.805	0.01655	0.0141269	-0.0258019	3	6.44431	12	-3.64501e-07
2	0	0	0	0	413.205	0.0605508	0.0616024	-0.0169865	3	6.44422	12	-1.04641e-06
2	1	0	0	0	417.605	0.104552	0.104591	-0.0111857	3	6.44416	12	-1.16992e-06
2	0	0	1	0	422.005	0.148552	0.146087	-0.0057511	3	6.44413	12	-8.40161e-07
2	0	0	1	0	426.405	0.192553	0.189775	0.00156723	3	6.44412	12	2.97421e-07
2	0	0	1	0	430.805	0.236554	0.237048	0.0117007	3	6.44415	12	2.77363e-06
2	0	0	0	0	435.205	0.280555	0.27881	0.0272186	3	6.44423	12	7.58882e-06
2	1	0	0	0	439.605	0.324556	0.323976	0.0517094	3	6.44441	12	1.67526e-05
2	0	0	1	0	444.006	0.368557	0.368969	0.0859805	3	6.44471	12	3.17241e-05
2	1	0	1	0	448.406	0.412557	0.41157	0.133506	3	6.44519	12	5.49471e-05
2	1	0	1	0	452.806	0.456558	0.456492	0.172689	3	6.44588	12	7.88313e-05
2	1	0	0	0	457.206	0.500559	0.50035	0.211237	3	6.44674	12	0.000105692
2	1	0	0	0	461.606	0.54456	0.545173	0.264856	3	6.44779	12	0.000144392
2	1	0	1	0	466.006	0.588561	0.587286	0.492041	3	6.44932	12	0.000288969
2	1	0	1	0	470.436	0.632861	0.634409	1.96048	3	6.45399	11	0.00124374
2	1	0	0	0	474.836	0.676862	0.67438	6.18459	3	6.47078	11	0.00417076
2	1	0	0	0	479.266	0.721163	0.720499	13.5651	3	6.51345	10	0.00977366
2	1	0	0	0	483.666	0.765164	0.76529	23.659	3	6.59445	10	0.018106
2	1	0	1	0	488.066	0.809165	0.806071	35.9818	3	6.72494	10	0.0290039
2	1	0	1	0	492.466	0.853166	0.850831	50.1147	3	6.91377	10	0.0426392
2	1	0	0	0	496.867	0.897166	0.895077	65.4079	3	7.16784	10	0.0585451
2	1	0	0	0	501.267	0.941167	0.944785	81.4428	3	7.49082	10	0.0769459
2	1	0	0	0	505.667	0.985168	0.989624	97.7338	3	7.88523	10	0.0967197
2	1	0	0	0	509.907	0.972468	0.973303	92.7294	3	8.30646	10	0.0902538
2	1	0	0	0	514.307	0.928467	0.931049	75.2244	3	8.67539	10	0.0700376
2	1	0	0	0	518.707	0.884466	0.886374	59.2066	3	8.97078	10	0.0524792
2	1	0	1	0	523.108	0.840465	0.839105	44.5305	3	9.19853	10	0.0373658
2	1	0	1	0	527.508	0.796464	0.795135	31.4072	3	9.36483	10	0.024973
2	1	0	0	0	531.908	0.752464	0.751115	20.2838	3	9.47776	10	0.0152355
2	1	0	0	0	536.308	0.708463	0.708065	11.5368	3	9.54677	10	0.00816877
2	1	0	1	0	540.708	0.664462	0.662609	5.3246	3	9.58284	10	0.00352813
2	1	0	1	0	545.138	0.620161	0.616749	1.74551	3	9.59753	11	0.00107654
2	1	0	1	0	549.568	0.57586	0.577191	0.318127	3	9.60147	12	0.00018362
2	1	0	0	0	553.968	0.53186	0.534014	-0.0256705	3	9.6019	12	-1.37084e-05
2	1	0	0	0	558.368	0.487859	0.489096	-0.0945498	3	9.60159	12	-4.6244e-05
2	0	0	1	0	562.768	0.443858	0.444045	-0.112008	3	9.60112	12	-4.97364e-05
2	0	0	1	0	567.168	0.399857	0.399882	-0.118255	3	9.6006	12	-4.7288e-05
2	0	0	1	0	571.569	0.355856	0.35507	-0.120872	3	9.60006	12	-4.29179e-05
2	0	0	0	0	575.969	0.311855	0.314044	-0.118457	3	9.59953	12	-3.72007e-05
2	0	0	0	0	580.369	0.267855	0.266957	-0.105928	3	9.59902	12	-2.82783e-05
2	0	0	1	0	584.769	0.223854	0.221598	-0.0897042	3	9.59859	12	-1.98783e-05
2	0	0	1	0	589.169	0.179853	0.179185	-0.072726	3	9.59822	12	-1.30314e-05
2	0	0	0	0	593.569	0.135852	0.131016	-0.0588424	3	9.59793	12	-7.7093e-06
2	0	0	0	0	597.969	0.0918514	0.0911727	-0.0487584	3	9.59769	12	-4.44543e-06
2	0	0	0	0	602.369	0.0478506	0.0479284	-0.0418511	3	9.59749	12	-2.00586e-06
2	0	0	1	0	606.769	0.00384976	0.00543204	-0.037273	3	9.59731	12	-2.02469e-07
2	0	0	0	1	611.01	-0.038551	-0.0401045	-0.0345493	3	9.59716	12	1.38558e-06
2	0	0	0	1	614.313	-0.0716017	-0.0669369	-0.0185704	3	9.59705	12	1.24305e-06

File: 2023_01_20_CoNiFeNx_400ºC_24h_electrode1_19012023_1_03_CP_C01.mpt
EC-Lab ASCII FILE
Nb header lines : 52

Chronopotentiometry

Run on channel : 1 (SN 21648)
User :
CE vs. WE compliance from -10 V to 10 V
Electrode connection : standard
Potential control : Ewe
Ewe ctrl range : min = -2.50 V, max = 2.50 V
Safety Limits :
	Do not start on E overload
Acquisition started on : 01/20/2023 16:29:26.125
Loaded Setting File :  C:\Users\grupogalan\Documents\EC-Lab\Data\Lole Jurado\2023_01_20_CoNiFeNx_400ºC_24h_electrode2_19012023_1.mps
Saved on :
	File : 2023_01_20_CoNiFeNx_400ºC_24h_electrode1_19012023_1_03_CP_C01.mpr
	Directory : C:\Users\grupogalan\Documents\EC-Lab\Data\Lole Jurado\
	Host : 169.254.104.159
Device : VSP (SN 1176)
Address : USB
EC-Lab for windows v11.46 (software)
Internet server v11.40 (firmware)
Command interpretor v11.40 (firmware)
Electrode material :
Initial state :
Electrolyte :
Comments :
Electrode surface area : 0.000 cm²
Characteristic mass : 0.001 g
Equivalent Weight : 0.000 g/eq.
Density : 0.000 g/cm3
Volume (V) : 0.001 cm³
Cycle Definition : Charge/Discharge alternance
Is                  10.000
unit Is             mA
vs.                 <None>
ts (h:m:s)          2:00:0.0000
EM (V)              pass
dQM                 20.000
unit dQM            mA.h
record              <Ewe>
dEs (mV)            0.00
dts (s)             1.0000
E range min (V)     -2.500
E range max (V)     2.500
I Range             10 mA
Bandwidth           5
goto Ns'            0
nc cycles           0

mode	ox/red	error	control changes	Ns changes	counter inc.	Ns	time/s	control/mA	<Ewe>/V	I/mA	dQ/C	(Q-Qo)/C	half cycle	Q charge/discharge/mA.h	I Range	Energy charge/W.h	Energy discharge/W.h	Capacitance charge/µF	Capacitance discharge/µF	Q discharge/mA.h	Q charge/mA.h	Capacity/mA.h	Efficiency/%	cycle number	P/W
1	1	0	1	0	0	0	714.855	10	0.711109	9.99999	0.00947613	0.00947613	0	0.00263226	11	1.87182e-06	0.000000000000000E+000	0.000000000000000E+000	0.000000000000000E+000	0.000000000000000E+000	0.00263226	0.00263226	0.0000000E+000	0.000000000000000E+000	0.00711108
1	1	0	1	0	0	0	877.855	10	0.707762	10.0001	1.6395	1.6395	0	0.455416	11	0.00032239	0.000000000000000E+000	4.89791e+08	0.000000000000000E+000	0.000000000000000E+000	0.455416	0.455416	0.0000000E+000	0.000000000000000E+000	0.0070777
1	1	0	1	0	0	0	1040.86	10	0.709672	10.001	3.26951	3.26951	0	0.908198	11	0.000643262	0.000000000000000E+000	2.27485e+09	0.000000000000000E+000	0.000000000000000E+000	0.908198	0.908198	0.0000000E+000	0.000000000000000E+000	0.00709743
1	1	0	1	0	0	0	1203.86	10	0.711794	9.99999	4.89954	4.89954	0	1.36098	11	0.000965065	0.000000000000000E+000	7.15846e+09	0.000000000000000E+000	0.000000000000000E+000	1.36098	1.36098	0.0000000E+000	0.000000000000000E+000	0.00711793
1	1	0	1	0	0	0	1366.86	10	0.714287	10.0002	6.52956	6.52956	0	1.81377	11	0.00128792	0.000000000000000E+000	2.05508e+09	0.000000000000000E+000	0.000000000000000E+000	1.81377	1.81377	0.0000000E+000	0.000000000000000E+000	0.00714299
1	1	0	1	0	0	0	1529.86	10	0.716771	10.0002	8.15958	8.15958	0	2.26655	11	0.00161191	0.000000000000000E+000	1.44111e+09	0.000000000000000E+000	0.000000000000000E+000	2.26655	2.26655	0.0000000E+000	0.000000000000000E+000	0.00716788
1	1	0	1	0	0	0	1692.86	10	0.719676	10.0002	9.78959	9.78959	0	2.71933	11	0.00193711	0.000000000000000E+000	1.14274e+09	0.000000000000000E+000	0.000000000000000E+000	2.71933	2.71933	0.0000000E+000	0.000000000000000E+000	0.00719689
1	1	0	1	0	0	0	1855.86	10	0.722316	10.0003	11.4196	11.4196	0	3.17211	11	0.00226354	0.000000000000000E+000	1.01898e+09	0.000000000000000E+000	0.000000000000000E+000	3.17211	3.17211	0.0000000E+000	0.000000000000000E+000	0.00722338
1	1	0	1	0	0	0	2018.86	10	0.725066	10.0008	13.0496	13.0496	0	3.6249	11	0.00259122	0.000000000000000E+000	9.34978e+08	0.000000000000000E+000	0.000000000000000E+000	3.6249	3.6249	0.0000000E+000	0.000000000000000E+000	0.00725125
1	1	0	1	0	0	0	2181.86	10	0.727832	10.0001	14.6796	14.6796	0	4.07768	11	0.00292015	0.000000000000000E+000	8.77819e+08	0.000000000000000E+000	0.000000000000000E+000	4.07768	4.07768	0.0000000E+000	0.000000000000000E+000	0.0072784
1	1	0	1	0	0	0	2344.86	10	0.730263	10.0006	16.3097	16.3097	0	4.53046	11	0.00325025	0.000000000000000E+000	8.51493e+08	0.000000000000000E+000	0.000000000000000E+000	4.53046	4.53046	0.0000000E+000	0.000000000000000E+000	0.00730309
1	1	0	1	0	0	0	2507.86	10	0.732836	9.99992	17.9397	17.9397	0	4.98324	11	0.00358146	0.000000000000000E+000	8.25703e+08	0.000000000000000E+000	0.000000000000000E+000	4.98324	4.98324	0.0000000E+000	0.000000000000000E+000	0.0073283
1	1	0	1	0	0	0	2670.86	10	0.735244	10.0003	19.5697	19.5697	0	5.43602	11	0.00391383	0.000000000000000E+000	8.10843e+08	0.000000000000000E+000	0.000000000000000E+000	5.43602	5.43602	0.0000000E+000	0.000000000000000E+000	0.00735267
1	1	0	1	0	0	0	2833.86	10	0.73772	10.0002	21.1997	21.1997	0	5.88881	11	0.00424731	0.000000000000000E+000	7.96665e+08	0.000000000000000E+000	0.000000000000000E+000	5.88881	5.88881	0.0000000E+000	0.000000000000000E+000	0.00737737
1	1	0	1	0	0	0	2996.86	10	0.739968	10.0009	22.8297	22.8297	0	6.34159	11	0.00458184	0.000000000000000E+000	7.91071e+08	0.000000000000000E+000	0.000000000000000E+000	6.34159	6.34159	0.0000000E+000	0.000000000000000E+000	0.00740033
1	1	0	1	0	0	0	3159.86	10	0.742308	9.99935	24.4597	24.4597	0	6.79437	11	0.00491741	0.000000000000000E+000	7.83998e+08	0.000000000000000E+000	0.000000000000000E+000	6.79437	6.79437	0.0000000E+000	0.000000000000000E+000	0.0074226
1	1	0	1	0	0	0	3322.86	10	0.744537	10	26.0898	26.0898	0	7.24715	11	0.00525403	0.000000000000000E+000	7.8048e+08	0.000000000000000E+000	0.000000000000000E+000	7.24715	7.24715	0.0000000E+000	0.000000000000000E+000	0.00744541
1	1	0	1	0	0	0	3485.86	10	0.74662	10.0005	27.7198	27.7198	0	7.69994	11	0.00559164	0.000000000000000E+000	7.80608e+08	0.000000000000000E+000	0.000000000000000E+000	7.69994	7.69994	0.0000000E+000	0.000000000000000E+000	0.00746657
1	1	0	1	0	0	0	3648.86	10	0.748986	9.99973	29.3498	29.3498	0	8.15272	11	0.00593022	0.000000000000000E+000	7.7488e+08	0.000000000000000E+000	0.000000000000000E+000	8.15272	8.15272	0.0000000E+000	0.000000000000000E+000	0.00748966
1	1	0	1	0	0	0	3811.86	10	0.751271	10	30.9798	30.9798	0	8.6055	11	0.00626983	0.000000000000000E+000	7.71378e+08	0.000000000000000E+000	0.000000000000000E+000	8.6055	8.6055	0.0000000E+000	0.000000000000000E+000	0.00751275
1	1	0	1	0	0	0	3974.86	10	0.753425	10.0005	32.6098	32.6098	0	9.05829	11	0.00661048	0.000000000000000E+000	7.70629e+08	0.000000000000000E+000	0.000000000000000E+000	9.05829	9.05829	0.0000000E+000	0.000000000000000E+000	0.00753462
1	1	0	1	0	0	0	4137.86	10	0.755496	9.9991	34.2398	34.2398	0	9.51107	11	0.00695212	0.000000000000000E+000	7.71404e+08	0.000000000000000E+000	0.000000000000000E+000	9.51107	9.51107	0.0000000E+000	0.000000000000000E+000	0.00755427
1	1	0	1	0	0	0	4300.86	10	0.75765	10	35.8699	35.8699	0	9.96385	11	0.00729473	0.000000000000000E+000	7.70716e+08	0.000000000000000E+000	0.000000000000000E+000	9.96385	9.96385	0.0000000E+000	0.000000000000000E+000	0.00757654
1	1	0	1	0	0	0	4463.86	10	0.759827	9.99999	37.4999	37.4999	0	10.4166	11	0.0076383	0.000000000000000E+000	7.6974e+08	0.000000000000000E+000	0.000000000000000E+000	10.4166	10.4166	0.0000000E+000	0.000000000000000E+000	0.00759826
[...]
1	1	0	1	0	0	0	5604.86	10	0.774011	10.0003	48.91	48.91	0	13.5861	11	0.0100693	0.000000000000000E+000	7.77562e+08	0.000000000000000E+000	0.000000000000000E+000	13.5861	13.5861	0.0000000E+000	0.000000000000000E+000	0.00774034
1	1	0	1	0	0	0	5767.86	10	0.776135	9.99967	50.54	50.54	0	14.0389	11	0.0104202	0.000000000000000E+000	7.77225e+08	0.000000000000000E+000	0.000000000000000E+000	14.0389	14.0389	0.0000000E+000	0.000000000000000E+000	0.0077611
1	1	0	1	0	0	0	5930.86	10	0.778026	9.99961	52.17	52.17	0	14.4917	11	0.010772	0.000000000000000E+000	7.79621e+08	0.000000000000000E+000	0.000000000000000E+000	14.4917	14.4917	0.0000000E+000	0.000000000000000E+000	0.00777996
1	1	0	1	0	0	0	6093.86	10	0.780121	9.99999	53.8	53.8	0	14.9445	11	0.0111247	0.000000000000000E+000	7.79578e+08	0.000000000000000E+000	0.000000000000000E+000	14.9445	14.9445	0.0000000E+000	0.000000000000000E+000	0.0078012
1	1	0	1	0	0	0	6256.86	10	0.781923	10	55.4301	55.4301	0	15.3972	11	0.0114784	0.000000000000000E+000	7.82759e+08	0.000000000000000E+000	0.000000000000000E+000	15.3972	15.3972	0.0000000E+000	0.000000000000000E+000	0.00781927
1	1	0	1	0	0	0	6419.86	10	0.783855	9.9998	57.0601	57.0601	0	15.85	11	0.0118329	0.000000000000000E+000	7.84377e+08	0.000000000000000E+000	0.000000000000000E+000	15.85	15.85	0.0000000E+000	0.000000000000000E+000	0.00783839
1	1	0	1	0	0	0	6582.86	10	0.786007	9.99954	58.6901	58.6901	0	16.3028	11	0.0121883	0.000000000000000E+000	7.83606e+08	0.000000000000000E+000	0.000000000000000E+000	16.3028	16.3028	0.0000000E+000	0.000000000000000E+000	0.00785971
1	1	0	1	0	0	0	6745.86	10	0.788114	10.0003	60.3201	60.3201	0	16.7556	11	0.0125447	0.000000000000000E+000	7.83331e+08	0.000000000000000E+000	0.000000000000000E+000	16.7556	16.7556	0.0000000E+000	0.000000000000000E+000	0.00788138
1	1	0	1	0	0	0	6908.86	10	0.790006	9.9998	61.9501	61.9501	0	17.2084	11	0.0129019	0.000000000000000E+000	7.85202e+08	0.000000000000000E+000	0.000000000000000E+000	17.2084	17.2084	0.0000000E+000	0.000000000000000E+000	0.0078999
1	1	0	1	0	0	0	7071.86	10	0.792066	9.99973	63.5801	63.5801	0	17.6611	11	0.0132601	0.000000000000000E+000	7.8536e+08	0.000000000000000E+000	0.000000000000000E+000	17.6611	17.6611	0.0000000E+000	0.000000000000000E+000	0.00792045
1	1	0	1	0	0	0	7234.86	10	0.793933	9.99967	65.2101	65.2101	0	18.1139	11	0.0136192	0.000000000000000E+000	7.87334e+08	0.000000000000000E+000	0.000000000000000E+000	18.1139	18.1139	0.0000000E+000	0.000000000000000E+000	0.00793907
1	1	0	1	0	0	0	7397.86	10	0.7961	9.99992	66.8401	66.8401	0	18.5667	11	0.0139793	0.000000000000000E+000	7.86436e+08	0.000000000000000E+000	0.000000000000000E+000	18.5667	18.5667	0.0000000E+000	0.000000000000000E+000	0.00796094
1	1	0	1	0	0	0	7560.86	10	0.798339	10.0005	68.4702	68.4702	0	19.0195	11	0.0143403	0.000000000000000E+000	7.84939e+08	0.000000000000000E+000	0.000000000000000E+000	19.0195	19.0195	0.0000000E+000	0.000000000000000E+000	0.00798379
1	1	0	1	0	0	0	7723.86	10	0.800517	10.0004	70.1002	70.1002	0	19.4723	11	0.0147022	0.000000000000000E+000	7.84049e+08	0.000000000000000E+000	0.000000000000000E+000	19.4723	19.4723	0.0000000E+000	0.000000000000000E+000	0.00800551
1	1	0	1	0	0	0	7886.86	10	0.802582	9.99986	71.7302	71.7302	0	19.9251	11	0.0150651	0.000000000000000E+000	7.84166e+08	0.000000000000000E+000	0.000000000000000E+000	19.9251	19.9251	0.0000000E+000	0.000000000000000E+000	0.00802571
1	1	0	1	0	0	0	7913.91	10	0.803282	10.0003	72.0007	72.0007	0	20.0002	11	0.0151254	0.000000000000000E+000	7.81151e+08	0.000000000000000E+000	0.000000000000000E+000	20.0002	20.0002	0.0000000E+000	0.000000000000000E+000	0.00803306