Folder: EC-Lab-Processing/Data_Lola/CoNiFeNx_400ºC_24h_13102022/Electrodes_20012023/Set 1

File: 2023_01_20_CoNiFeNx_400ºC_24h_electrode2_set1_20012023_1_C01.mpt
EC-Lab ASCII FILE
Nb header lines : 57

Cyclic Voltammetry

Run on channel : 1 (SN 21648)
User :
CE vs. WE compliance from -10 V to 10 V
Electrode connection : standard
Potential control : Ewe
Ewe ctrl range : min = -2.50 V, max = 2.50 V
Safety Limits :
	Do not start on E overload
Acquisition started on : 01/20/2023 15:58:04.450
Loaded Setting File :  NONE
Saved on :
	File : 2023_01_20_CoNiFeNx_400ºC_24h_electrode2_set1_20012023_1_C01.mpr
	Directory : C:\Users\grupogalan\Documents\EC-Lab\Data\Lole Jurado\
	Host : 169.254.104.159
Device : VSP (SN 1176)
Address : USB
EC-Lab for windows v11.46 (software)
Internet server v11.40 (firmware)
Command interpretor v11.40 (firmware)
Electrode material :
Initial state :
Electrolyte :
Comments :
Electrode surface area : 0.000 cm²
Characteristic mass : 0.001 g
Equivalent Weight : 0.000 g/eq.
Density : 0.000 g/cm3
Volume (V) : 0.001 cm³
Cycle Definition : Charge/Discharge alternance
Ei (V)              0.000
vs.                 Eoc
dE/dt               10.000
dE/dt unit          mV/s
E1 (V)              1.000
vs.                 Ref
Step percent        50
N                   10
E range min (V)     -2.500
E range max (V)     2.500
I Range             Auto
I Range min         Unset
I Range max         Unset
I Range init        Unset
Bandwidth           5
E2 (V)              0.000
vs.                 Ref
nc cycles           2
Reverse Scan        1
Ef (V)              0.000
vs.                 Eoc

mode	ox/red	error	control changes	counter inc.	time/s	control/V	Ewe/V	<I>/mA	cycle number	(Q-Qo)/C	I Range	P/W
2	0	0	0	0	0.000000000000000E+000	-0.160403	-0.156026	-0.00976333	1	0.0000000E+000	13	1.52334e-06
2	0	0	1	0	4.4852	-0.115553	-0.115202	0.0019988	1	6.00009e-06	12	-2.30265e-07
2	1	0	1	0	8.9852	-0.0705516	-0.0701839	0.00252588	1	1.98135e-05	12	-1.77276e-07
2	0	0	0	0	13.4854	-0.0255508	-0.0278646	0.00382696	1	3.87287e-05	12	-1.06637e-07
2	1	0	0	0	17.9854	0.0194501	0.0212869	0.00507484	1	6.15282e-05	12	1.08028e-07
2	1	0	1	0	22.4856	0.0644509	0.0664553	0.00579028	1	8.78782e-05	12	3.84795e-07
2	1	0	1	0	26.9856	0.109452	0.105122	0.00664564	1	0.00011872	12	6.98606e-07
2	0	0	1	0	31.4856	0.154453	0.154618	0.00894095	1	0.000155536	12	1.38243e-06
2	1	0	0	0	35.9858	0.199453	0.197953	0.0114935	1	0.000204669	12	2.27518e-06
2	1	0	0	0	40.4858	0.244454	0.245879	0.0156863	1	0.000269742	12	3.85693e-06
2	1	0	1	0	44.986	0.289455	0.286559	0.0216806	1	0.000354943	12	6.21277e-06
2	1	0	1	0	49.486	0.334456	0.335354	0.0311579	1	0.000475343	12	1.04489e-05
2	1	0	0	0	53.9862	0.379457	0.379375	0.0487577	1	0.000657431	12	1.84974e-05
2	1	0	0	0	58.4862	0.424458	0.421005	0.073974	1	0.000931889	12	3.11434e-05
2	1	0	0	0	62.9862	0.469458	0.4704	0.114615	1	0.0013537	12	5.39148e-05
2	1	0	1	0	67.4864	0.514459	0.51331	0.159999	1	0.00197596	12	8.21292e-05
2	1	0	1	0	71.9864	0.55946	0.558837	0.206708	1	0.00280211	12	0.000115516
2	1	0	0	0	76.4866	0.604461	0.603142	0.313352	1	0.00392407	12	0.000188996
2	1	0	0	0	80.9866	0.649462	0.648119	0.81628	1	0.00622112	12	0.000529047
2	1	0	1	0	85.5168	0.694763	0.698259	2.24997	1	0.0127456	11	0.00157106
2	1	0	1	0	90.0168	0.739763	0.738286	4.95915	1	0.0284447	11	0.00366127
2	1	0	1	0	94.5168	0.784764	0.786496	9.26625	1	0.0598199	11	0.00728787
2	1	0	0	0	99.047	0.830065	0.829384	15.4553	1	0.115159	10	0.0128184
2	1	0	0	0	103.547	0.875066	0.874171	23.5748	1	0.202262	10	0.0206084
2	1	0	1	0	108.047	0.920067	0.921399	33.8922	1	0.330955	10	0.0312282
2	1	0	1	0	112.547	0.965068	0.96526	45.4582	1	0.50951	10	0.043879
2	1	0	0	0	116.898	0.991468	0.988509	50.7838	1	0.728561	10	0.0502002
2	1	0	0	0	121.398	0.946467	0.944414	36.4663	1	0.923348	10	0.0344393
2	1	0	0	0	125.898	0.901466	0.904919	25.0442	1	1.06077	10	0.022663
2	1	0	1	0	130.398	0.856466	0.855023	16.1166	1	1.15246	10	0.01378
2	1	0	1	0	134.898	0.811465	0.810116	9.72536	1	1.20972	10	0.00787867
2	1	0	0	0	139.398	0.766464	0.769461	5.48766	1	1.24327	10	0.00422254
2	1	0	0	0	143.928	0.721163	0.719841	2.82222	1	1.26159	11	0.00203155
2	1	0	1	0	148.428	0.676162	0.674506	1.26548	1	1.27045	11	0.000853573
2	1	0	1	0	152.928	0.631161	0.630461	0.444219	1	1.27406	11	0.000280063
2	1	0	1	0	157.458	0.58586	0.579802	0.10247	1	1.27516	12	5.94123e-05
2	1	0	0	0	161.959	0.54086	0.542561	0.00541477	1	1.27534	12	2.93784e-06
2	1	0	0	0	166.459	0.495859	0.493629	-0.01696	1	1.2753	12	-8.37194e-06
2	0	0	1	0	170.959	0.450858	0.450541	-0.0233886	1	1.27521	12	-1.05375e-05
2	0	0	1	0	175.459	0.405857	0.405484	-0.0254817	1	1.27509	12	-1.03324e-05
2	0	0	0	0	179.959	0.360856	0.360965	-0.0266158	1	1.27497	12	-9.60738e-06
2	0	0	0	0	184.459	0.315856	0.316362	-0.0273918	1	1.27485	12	-8.66574e-06
2	0	0	0	0	188.959	0.270855	0.271208	-0.0246917	1	1.27473	12	-6.69659e-06
2	0	0	1	0	193.459	0.225854	0.22849	-0.0210833	1	1.27462	12	-4.81732e-06
2	0	0	1	0	197.959	0.180853	0.181043	-0.018154	1	1.27453	12	-3.28665e-06
2	1	0	0	0	202.459	0.135852	0.136584	-0.0163353	1	1.27445	12	-2.23114e-06
2	0	0	0	0	206.959	0.0908514	0.0882599	-0.0137886	1	1.27439	12	-1.21698e-06
2	0	0	1	0	211.46	0.0458505	0.0441713	-0.0117055	1	1.27433	12	-5.17049e-07
2	0	0	1	0	215.96	0.000849706	0.00432145	-0.0104998	1	1.27428	12	-4.53742e-08
2	0	0	0	1	220.3	0.0425505	0.0405361	-0.00576088	2	1.27424	12	-2.33524e-07
2	0	0	1	1	224.8	0.0875513	0.0891965	-0.00439226	2	1.27422	12	-3.91774e-07
2	0	0	1	1	229.3	0.132552	0.130619	-0.0021747	2	1.27421	12	-2.84058e-07
2	0	0	0	1	233.801	0.177553	0.175578	-9.84259e-05	2	1.27421	12	-1.72814e-08
2	1	0	0	1	238.301	0.222554	0.2207	0.00262907	2	1.27422	12	5.80235e-07
2	1	0	1	1	242.801	0.267555	0.268087	0.00566428	2	1.27424	12	1.51852e-06
2	1	0	1	1	247.301	0.312555	0.310102	0.0113277	2	1.27427	12	3.51274e-06
2	1	0	1	1	251.801	0.357556	0.358146	0.0180375	2	1.27434	12	6.46004e-06
2	1	0	0	1	256.301	0.402557	0.402593	0.0297265	2	1.27445	12	1.19677e-05
2	1	0	0	1	260.801	0.447558	0.445064	0.0426358	2	1.27461	12	1.89756e-05
2	1	0	1	1	265.301	0.492559	0.493049	0.0550319	2	1.27484	12	2.71334e-05
2	1	0	1	1	269.801	0.53756	0.53923	0.0689499	2	1.27512	12	3.71798e-05
2	1	0	1	1	274.301	0.58256	0.579496	0.0988396	2	1.27549	12	5.72772e-05
2	1	0	0	1	278.801	0.627561	0.629871	0.271502	2	1.27622	12	0.000171011
2	1	0	0	1	283.301	0.672562	0.672275	0.901695	2	1.27862	12	0.000606188
2	1	0	1	1	287.832	0.717863	0.712176	2.43146	2	1.28576	11	0.00173163
2	1	0	1	1	292.332	0.762864	0.764518	5.28132	2	1.30255	11	0.00403766
2	1	0	0	1	296.832	0.807865	0.807425	9.86996	2	1.33596	11	0.00796925
2	1	0	0	1	301.362	0.853166	0.856212	16.3185	2	1.39469	10	0.0139721
2	1	0	1	1	305.862	0.898166	0.896965	24.3273	2	1.4856	10	0.0218208
2	1	0	1	1	310.362	0.943167	0.946627	33.5888	2	1.61553	10	0.0317961
2	1	0	1	1	314.862	0.988168	0.987382	43.8703	2	1.78957	10	0.0433167
2	1	0	0	1	319.203	0.968468	0.969588	37.7563	2	1.97614	10	0.0366081
2	1	0	0	1	323.703	0.923467	0.919905	26.8205	2	2.12075	10	0.0246724
2	1	0	1	1	328.203	0.878466	0.880086	17.96	2	2.22075	10	0.0158063
2	1	0	1	1	332.703	0.833465	0.833828	11.165	2	2.28544	10	0.0093097
2	1	0	0	1	337.203	0.788464	0.786329	6.43346	2	2.32426	10	0.00505882
2	1	0	0	1	341.733	0.743163	0.742554	3.37191	2	2.34589	11	0.00250383
2	1	0	0	1	346.233	0.698163	0.698359	1.5792	2	2.35664	11	0.00110285
2	1	0	1	1	350.733	0.653162	0.650969	0.614727	2	2.36131	11	0.000400168
2	1	0	1	1	355.263	0.607861	0.612944	0.176381	2	2.36294	12	0.000108112
[...]
2	0	0	0	1	409.264	0.0678509	0.0691835	-0.0122386	2	2.36246	12	-8.46709e-07
2	0	0	1	1	413.764	0.0228501	0.0225046	-0.0117712	2	2.3624	12	-2.64907e-07
2	1	0	0	0	418.105	0.0205501	0.0205539	-0.00814254	3	2.36236	12	-1.67361e-07
2	0	0	1	0	422.605	0.0655509	0.0659196	-0.0047347	3	2.36233	12	-3.1211e-07
2	0	0	1	0	427.105	0.110552	0.109146	-0.00289464	3	2.36232	12	-3.15938e-07
2	0	0	1	0	431.605	0.155553	0.155088	-0.00091098	3	2.36231	12	-1.41282e-07
2	1	0	0	0	436.105	0.200553	0.199239	0.000324652	3	2.36231	12	6.46832e-08
2	0	0	0	0	440.605	0.245554	0.244399	0.00348007	3	2.36232	12	8.50525e-07
2	1	0	1	0	445.106	0.290555	0.289938	0.00756734	3	2.36234	12	2.19406e-06
2	1	0	1	0	449.606	0.335556	0.333294	0.0124747	3	2.36239	12	4.15773e-06
2	1	0	0	0	454.106	0.380557	0.383637	0.0199793	3	2.36246	12	7.66479e-06
2	0	0	0	0	458.606	0.425558	0.425614	0.0311166	3	2.36258	12	1.32437e-05
2	1	0	0	0	463.106	0.470558	0.470463	0.0421348	3	2.36274	12	1.98229e-05
2	1	0	1	0	467.606	0.515559	0.515193	0.0531465	3	2.36296	12	2.73807e-05
2	1	0	1	0	472.106	0.56056	0.559772	0.0669733	3	2.36323	12	3.74898e-05
2	1	0	0	0	476.606	0.605561	0.603573	0.127662	3	2.36364	12	7.70536e-05
2	1	0	0	0	481.106	0.650562	0.651011	0.414906	3	2.36473	12	0.000270108
2	1	0	1	0	485.636	0.695863	0.695283	1.27021	3	2.36826	11	0.000883154
2	1	0	1	0	490.136	0.740863	0.741091	3.10873	3	2.37767	11	0.00230385
2	1	0	1	0	494.636	0.785864	0.784488	6.38851	3	2.39844	11	0.00501171
2	1	0	0	0	499.167	0.831165	0.829715	11.4366	3	2.43818	10	0.00948913
2	1	0	0	0	503.667	0.876166	0.877409	18.0919	3	2.50412	10	0.015874
2	1	0	1	0	508.167	0.921167	0.920091	26.025	3	2.60303	10	0.0239453
2	1	0	1	0	512.667	0.966168	0.965597	34.8871	3	2.73993	10	0.0336869
2	1	0	0	0	517.007	0.990468	0.989971	39.517	3	2.90928	10	0.0391207
2	1	0	0	0	521.507	0.945467	0.94853	28.5287	3	3.06159	10	0.0270603
2	1	0	0	0	526.007	0.900466	0.900267	19.5883	3	3.16911	10	0.0176347
2	1	0	1	0	530.508	0.855465	0.851636	12.6245	3	3.24079	10	0.0107514
2	1	0	1	0	535.008	0.810465	0.813615	7.55883	3	3.28549	10	0.00614997
2	1	0	0	0	539.538	0.765164	0.764061	4.11937	3	3.31137	11	0.00314745
2	1	0	0	0	544.038	0.720163	0.716395	2.02039	3	3.32475	11	0.0014474
2	1	0	1	0	548.538	0.675162	0.672473	0.849316	3	3.33092	11	0.000571142
2	1	0	1	0	553.068	0.629861	0.630145	0.282905	3	3.3333	12	0.000178271
2	1	0	1	0	557.568	0.584861	0.585559	0.0672308	3	3.33399	12	3.93676e-05
2	1	0	0	0	562.068	0.53986	0.537751	0.0053382	3	3.33412	12	2.87063e-06
2	0	0	0	0	566.568	0.494859	0.494634	-0.0107319	3	3.33409	12	-5.30838e-06
2	1	0	1	0	571.068	0.449858	0.450482	-0.0166309	3	3.33403	12	-7.49191e-06
2	1	0	1	0	575.568	0.404857	0.402639	-0.0194239	3	3.33394	12	-7.82083e-06
2	1	0	0	0	580.069	0.359856	0.357738	-0.0213144	3	3.33385	12	-7.62494e-06
2	0	0	0	0	584.569	0.314856	0.315633	-0.0217285	3	3.33375	12	-6.85822e-06
2	0	0	0	0	589.069	0.269855	0.26949	-0.0205372	3	3.33365	12	-5.53457e-06
2	0	0	1	0	593.569	0.224854	0.2253	-0.0182726	3	3.33356	12	-4.11681e-06
2	0	0	1	0	598.069	0.179853	0.179969	-0.0163215	3	3.33348	12	-2.93736e-06
2	1	0	0	0	602.569	0.134852	0.132925	-0.0145091	3	3.33341	12	-1.92862e-06
2	1	0	0	0	607.069	0.0898514	0.0924159	-0.0127091	3	3.33335	12	-1.17452e-06
2	0	0	1	0	611.569	0.0448505	0.038788	-0.0110465	3	3.33329	12	-4.28472e-07
2	1	0	1	0	616.034	0.000199694	0.00025245	-0.0103435	3	3.33324	12	-2.61121e-09
2	1	0	0	1	620.41	-0.0435511	-0.0457317	-0.00994102	3	3.3332	12	4.54619e-07
2	0	0	1	1	624.91	-0.088552	-0.0908598	-0.00920365	3	3.33315	12	8.36242e-07
2	1	0	1	1	629.41	-0.133553	-0.13431	-0.00899244	3	3.33311	12	1.20777e-06
2	0	0	1	1	632.107	-0.160603	-0.163988	-0.016232	3	3.33308	12	2.66186e-06

File: 2023_01_20_CoNiFeNx_400ºC_24h_electrode2_set1_20012023_C05.mpt
EC-Lab ASCII FILE
Nb header lines : 64

Potentio Electrochemical Impedance Spectroscopy

Run on channel : 5 (SN 30436)
User :
CE vs. WE compliance from -10 V to 10 V
Electrode connection : standard
Potential control : Ewe
Ewe ctrl range : min = -2.50 V, max = 2.50 V
Safety Limits :
	Do not start on E overload
Acquisition started on : 01/20/2023 15:51:02.213
Loaded Setting File :  NONE
Saved on :
	File : 2023_01_20_CoNiFeNx_400ºC_24h_electrode2_set1_20012023_C05.mpr
	Directory : C:\Users\grupogalan\Documents\EC-Lab\Data\Lole Jurado\
	Host : 169.254.104.159
Device : VSP (SN 1176)
Address : USB
EC-Lab for windows v11.46 (software)
Internet server v11.40 (firmware)
Command interpretor v11.40 (firmware)
Electrode material :
Initial state :
Electrolyte :
Comments :
Electrode surface area : 0.001 cm²
Characteristic mass : 0.001 g
Equivalent Weight : 0.000 g/eq.
Density : 0.000 g/cm3
Volume (V) : 0.001 cm³
Record Ece
Cycle Definition : Charge/Discharge alternance
Mode                Single sine
E (V)               0.0000
vs.                 Eoc
tE (h:m:s)          0:00:0.0000
record              0
dI                  0.000
unit dI             mA
dt (s)              0.000
fi                  200.000
unit fi             kHz
ff                  100.000
unit ff             mHz
Nd                  6
Points              per decade
spacing             Logarithmic
Va (mV)             10.0
pw                  0.10
Na                  2
corr                0
E range min (V)     -2.500
E range max (V)     2.500
I Range             Auto
Bandwidth           5
nc cycles           0
goto Ns'            0
nr cycles           0
inc. cycle          0

freq/Hz	Re(Z)/Ohm	-Im(Z)/Ohm	|Z|/Ohm	Phase(Z)/deg	time/s	<Ewe>/V	<I>/mA	Cs/µF	Cp/µF	cycle number	I Range	|Ewe|/V	|I|/A	Ns	(Q-Qo)/mA.h	<Ece>/V	|Ece|/V	Phase(Zce)/deg	|Zce|/Ohm	Re(Zce)/Ohm	-Im(Zce)/Ohm	Phase(Zwe-ce)/deg	|Zwe-ce|/Ohm	Re(Zwe-ce)/Ohm	-Im(Zwe-ce)/Ohm	Re(Y)/Ohm-1	Im(Y)/Ohm-1	|Y|/Ohm-1	Phase(Y)/deg	dq/mA.h
199998	1.32479	-1.54771	2.03727	49.4374	2.19854	-0.158596	-0.122623	-0.514169	-0.296746	1	9	0.00700045	0.00343619	0	-2.1257e-05	-0.105129	0.00333048	-21.8939	0.969236	0.899331	0.361417	28.0743	2.52072	2.22412	-1.18629	0.319191	-0.372899	0.490853	-49.4374	-2.1257e-05
91291.2	0.743795	-0.306469	0.804459	22.3933	2.95256	-0.158424	-0.153371	-5.6886	-0.8256	1	9	0.00968385	0.0120377	0	-5.07495e-05	-0.111107	0.0177392	5.02509	1.47363	1.46797	-0.129078	11.1403	2.25424	2.21176	-0.435547	1.14933	-0.473564	1.24307	-22.3933	-1.79964e-05
41669.8	0.73089	0.0473359	0.732422	-3.70557	3.82853	-0.158101	-0.0768933	80.6879	0.337029	1	9	0.00969112	0.0132316	0	-2.20222e-05	-0.0882237	0.0201187	2.78277	1.5205	1.51871	-0.0738193	0.674484	2.24975	2.2496	-0.0264834	1.36248	0.0882406	1.36533	3.70557	5.34553e-05
19020.9	0.802036	0.22716	0.833585	-15.8137	4.70456	-0.158634	-0.0224424	36.8346	2.73541	1	9	0.0103807	0.0124531	0	-6.88964e-05	-0.118633	0.0190273	-2.08625	1.52792	1.5269	0.0556222	-6.92304	2.34604	2.32894	0.282783	1.15424	0.326914	1.19964	15.8137	-0.00010022
8684.68	0.806687	0.567714	0.98643	-35.1364	5.45855	-0.158532	-0.155719	32.2802	10.6921	1	9	0.0103335	0.0104756	0	-8.49223e-05	-0.108681	0.0157921	-6.51721	1.50751	1.49776	0.171104	-17.7761	2.41999	2.30445	0.738819	0.829035	0.583442	1.01376	35.1364	-1.57422e-05
3960.08	0.936424	1.20188	1.52362	-52.0767	6.01483	-0.159419	-0.196194	33.4391	20.8078	1	9	0.00939358	0.00616531	0	-0.000103519	-0.109828	0.0102814	0.0743364	1.66761	1.66761	-0.00216359	-24.7362	2.86711	2.60404	1.19972	0.403386	0.517738	0.656332	52.0767	-1.34208e-05
1808.26	0.894535	2.50327	2.6583	-70.3358	7.50507	-0.159064	-0.187584	35.1601	31.1787	1	9	0.00964874	0.00362966	0	-0.000179268	-0.092235	0.0056213	-11.7997	1.54871	1.51598	0.316697	-49.4761	3.70983	2.41052	2.81997	0.126587	0.354242	0.37618	70.3358	-2.69981e-05
825.264	1.52532	4.68604	4.92804	-71.9698	8.85184	-0.158989	-0.0161063	41.1548	37.2121	1	10	0.00993814	0.00201665	0	-0.000195184	-0.100028	0.00357629	-9.81934	1.77338	1.7474	0.302437	-56.7329	5.96621	3.27272	4.98848	0.0628076	0.192956	0.20292	71.9698	-2.83052e-06
377.051	2.66557	10.898	11.2193	-76.2557	9.74177	-0.159378	-0.0323649	38.7323	36.5459	1	10	0.0106173	0.000946346	0	-0.000200425	-0.0998947	0.00215673	-25.186	2.27901	2.06235	0.969852	-68.2786	12.7749	4.72792	11.8678	0.0211769	0.0865803	0.0891325	76.2557	-3.69249e-06
172.037	2.09988	22.5691	22.6666	-84.6844	10.6285	-0.1581	-0.027947	40.9906	40.6388	1	10	0.0101253	0.000446706	0	-0.000206626	-0.108185	0.00148481	-22.2185	3.32391	3.0771	1.2569	-77.7412	24.382	5.17698	23.826	0.00408716	0.0439281	0.0441178	84.6844	-2.46363e-06
78.5176	7.61818	46.5695	47.1885	-80.7094	12.1856	-0.158356	-0.00171987	43.5262	42.3918	1	11	0.0104206	0.000220829	0	-0.00020837	-0.103715	0.000569625	-37.9244	2.57948	2.03475	1.5854	-78.665	49.1129	9.65293	48.1549	0.0034212	0.0209136	0.0211916	80.7094	-1.22426e-07
35.8372	11.743	99.2775	99.9696	-83.2542	13.0822	-0.159288	-0.00332002	44.7338	44.1165	1	11	0.0104929	0.000104961	0	-0.000209275	-0.0835056	0.0014129	-57.2949	13.4611	7.27326	11.327	-80.2445	112.227	19.0162	110.605	0.00117501	0.00993379	0.010003	83.2542	-5.57371e-07
16.367	42.1748	200.323	204.715	-78.1109	14.1781	-0.158833	-0.000214293	48.5423	46.482	1	12	0.0105892	5.17265e-05	0	-0.000209465	-0.103505	0.00092719	26.6122	17.9248	16.0259	-8.02944	-73.1608	200.909	58.2007	192.294	0.00100636	0.00478005	0.00488484	78.1109	2.70186e-07
7.46893	92.0171	373.592	384.758	-76.1633	14.8917	-0.158404	-0.00125117	57.0379	53.7756	1	12	0.0100306	2.60699e-05	0	-0.000209599	-0.107765	0.00125381	-34.1216	48.0941	39.8146	26.9784	-71.7831	421.707	131.832	400.571	0.000621576	0.00252362	0.00259904	76.1633	2.87405e-07
3.4086	185.775	742.126	765.025	-75.946	16.3114	-0.159373	-0.0005926	62.9169	59.2067	1	13	0.0095641	1.25017e-05	0	-0.000210014	-0.0716435	0.000676315	-93.3039	54.0979	-3.11775	54.008	-77.0782	816.819	182.657	796.134	0.000317422	0.00126802	0.00130715	75.946	-3.64513e-07
1.55627	529.608	1566.58	1653.68	-71.3213	18.623	-0.158806	-0.000476177	65.2803	58.5847	1	13	0.0102322	6.18753e-06	0	-0.000210393	-0.100984	0.000939091	-58.2121	151.772	79.9497	129.006	-70.2266	1801.82	609.558	1695.58	0.000193666	0.000572862	0.000604713	71.3213	-9.82873e-08
0.710357	906.216	3241.21	3365.51	-74.3794	38.4438	-0.158819	-0.000377436	69.1253	64.1134	1	13	0.0102754	3.05316e-06	0	-0.000212705	-0.0795897	0.000648992	-35.1061	212.564	173.896	122.244	-72.1965	3532.62	1080.11	3363.45	8.00074e-05	0.000286158	0.000297132	74.3794	-2.2364e-06
0.324439	2534.34	5524.04	6077.66	-65.3552	102.535	-0.158626	-0.00083522	88.8034	73.362	1	13	0.0101719	1.67366e-06	0	-0.000224992	-0.105625	0.000564757	-53.5007	337.439	200.713	271.255	-64.7354	6408.27	2735.05	5795.3	6.86107e-05	0.000149549	0.000164537	65.3552	-8.04057e-06
0.147897	7098.69	10296.4	12506.3	-55.4162	241.467	-0.158867	-0.000737348	104.515	70.8419	1	13	0.0100342	8.0233e-07	0	-0.000255002	-0.0997228	0.00052167	-40.5062	650.194	494.366	422.32	-54.6865	13135.6	7593.06	10718.7	4.53861e-05	6.58307e-05	7.99599e-05	55.4162	-1.74819e-05
0.0999041	9846.11	10934.7	14714.4	-47.9986	363.741	-0.158811	-0.000458795	145.69	80.4561	1	13	0.0100207	6.81014e-07	0	-0.0002768	-0.0944699	0.000393358	-62.1049	577.607	270.235	510.492	-48.5267	15275.2	10116.3	11445.2	4.54758e-05	5.05036e-05	6.79607e-05	47.9986	-2.17977e-05