Folder: EC-Lab-Processing/Data_Lola/CoNiFeNx_400ºC_24h_13102022/Electrodes_20012023/Set 1 (part 2)

File: 2023_01_20_CoNiFeNx_400ºC_24h_electrode3_set1_20012023_1_01_CV_C01.mpt
EC-Lab ASCII FILE
Nb header lines : 57

Cyclic Voltammetry

Run on channel : 1 (SN 21648)
User :
CE vs. WE compliance from -10 V to 10 V
Electrode connection : standard
Potential control : Ewe
Ewe ctrl range : min = -2.50 V, max = 2.50 V
Safety Limits :
	Do not start on E overload
Acquisition started on : 01/20/2023 15:35:00.241
Loaded Setting File :  NONE
Saved on :
	File : 2023_01_20_CoNiFeNx_400ºC_24h_electrode1_set1_20012023_2_01_CV_C01.mpr
	Directory : C:\Users\grupogalan\Documents\EC-Lab\Data\Lole Jurado\
	Host : 169.254.104.159
Device : VSP (SN 1176)
Address : USB
EC-Lab for windows v11.46 (software)
Internet server v11.40 (firmware)
Command interpretor v11.40 (firmware)
Electrode material :
Initial state :
Electrolyte :
Comments :
Electrode surface area : 0.000 cm²
Characteristic mass : 0.001 g
Equivalent Weight : 0.000 g/eq.
Density : 0.000 g/cm3
Volume (V) : 0.001 cm³
Cycle Definition : Charge/Discharge alternance
Ei (V)              0.000
vs.                 Eoc
dE/dt               10.000
dE/dt unit          mV/s
E1 (V)              1.000
vs.                 Ref
Step percent        50
N                   10
E range min (V)     -2.500
E range max (V)     2.500
I Range             Auto
I Range min         Unset
I Range max         Unset
I Range init        Unset
Bandwidth           5
E2 (V)              0.000
vs.                 Ref
nc cycles           2
Reverse Scan        1
Ef (V)              0.000
vs.                 Eoc

mode	ox/red	error	control changes	counter inc.	time/s	control/V	Ewe/V	<I>/mA	cycle number	(Q-Qo)/C	I Range	P/W
2	0	0	1	0	0.000000000000000E+000	-0.177304	-0.168112	-0.0477846	1	0.0000000E+000	13	8.03318e-06
2	1	0	0	0	4.5852	-0.131453	-0.135359	0.0020534	1	7.88452e-06	12	-2.77946e-07
2	0	0	0	0	9.1852	-0.0854519	-0.0796955	0.00337616	1	2.39261e-05	12	-2.69065e-07
2	1	0	1	0	13.7854	-0.0394511	-0.0404439	0.00503851	1	4.69295e-05	12	-2.03777e-07
2	1	0	1	0	18.3854	0.00654981	0.007527	0.00666865	1	7.54525e-05	12	5.0195e-08
2	1	0	0	0	22.9856	0.0525507	0.0528142	0.00745228	1	0.000108708	12	3.93586e-07
2	1	0	0	0	27.5856	0.0985515	0.0993117	0.00831668	1	0.000146363	12	8.25944e-07
2	1	0	0	0	32.1856	0.144552	0.145391	0.00897377	1	0.000189515	12	1.30471e-06
2	0	0	1	0	36.7858	0.190553	0.188071	0.0123616	1	0.000242268	12	2.32485e-06
2	1	0	1	0	41.3858	0.236554	0.23767	0.0161667	1	0.000310416	12	3.84235e-06
2	1	0	0	0	45.986	0.282555	0.280583	0.0201386	1	0.000396637	12	5.65054e-06
2	1	0	0	0	50.586	0.328556	0.33418	0.0292164	1	0.000512432	12	9.76351e-06
2	1	0	1	0	55.1862	0.374557	0.373442	0.0431642	1	0.000679966	12	1.61193e-05
2	1	0	1	0	59.7862	0.420557	0.42137	0.0634654	1	0.000925616	12	2.67424e-05
2	1	0	0	0	64.3864	0.466558	0.466415	0.0969252	1	0.00129317	12	4.52073e-05
2	1	0	0	0	68.9864	0.512559	0.512326	0.135842	1	0.00183289	12	6.95956e-05
2	1	0	0	0	73.5864	0.55856	0.557144	0.180046	1	0.00255994	12	0.000100311
2	1	0	1	0	78.1866	0.604561	0.604576	0.278312	1	0.0035672	12	0.00016826
2	1	0	1	0	82.7866	0.650562	0.650303	0.726263	1	0.0056559	12	0.000472291
2	1	0	0	0	87.4168	0.696863	0.697903	2.01317	1	0.0116057	11	0.001405
2	1	0	0	0	92.0168	0.742863	0.740837	4.5087	1	0.026087	11	0.00334022
2	1	0	1	0	96.617	0.788864	0.788796	8.57191	1	0.0555399	11	0.00676149
2	1	0	1	0	101.247	0.835165	0.838468	14.4989	1	0.108314	10	0.0121568
2	1	0	1	0	105.847	0.881166	0.879895	22.4324	1	0.192542	10	0.0197382
2	1	0	0	0	110.447	0.927167	0.929183	32.3303	1	0.318033	10	0.0300408
2	1	0	0	0	115.047	0.973168	0.971921	42.5806	1	0.490697	10	0.0413849
2	1	0	0	0	119.488	0.982468	0.983841	41.6742	1	0.690814	10	0.0410008
2	1	0	0	0	124.088	0.936467	0.938144	29.1095	1	0.852172	10	0.0273089
2	1	0	0	0	128.688	0.890466	0.889999	19.3889	1	0.962768	10	0.0172561
2	1	0	1	0	133.288	0.844465	0.847228	12.045	1	1.03409	10	0.0102048
2	1	0	1	0	137.888	0.798464	0.799669	6.98506	1	1.07698	10	0.00558574
2	1	0	0	0	142.518	0.752164	0.751784	3.73518	1	1.10115	11	0.00280805
2	1	0	0	0	147.118	0.706163	0.703245	1.81898	1	1.11351	11	0.00127919
2	1	0	1	0	151.719	0.660162	0.660668	0.744869	1	1.11915	11	0.000492111
2	1	0	1	0	156.349	0.613861	0.612306	0.226533	1	1.12122	12	0.000138707
2	1	0	1	0	160.949	0.56786	0.568474	0.0430486	1	1.12175	12	2.4472e-05
2	0	0	0	0	165.549	0.521859	0.523516	-0.00230912	1	1.12182	12	-1.20886e-06
2	0	0	0	0	170.149	0.475858	0.473249	-0.0140563	1	1.12177	12	-6.65211e-06
2	0	0	1	0	174.749	0.429858	0.42911	-0.0180268	1	1.12169	12	-7.73547e-06
2	1	0	1	0	179.349	0.383857	0.384078	-0.0200675	1	1.1216	12	-7.70746e-06
2	0	0	0	0	183.949	0.337856	0.336912	-0.0207779	1	1.1215	12	-7.00033e-06
2	1	0	0	0	188.549	0.291855	0.29031	-0.0199113	1	1.1214	12	-5.78045e-06
2	1	0	1	0	193.149	0.245854	0.246123	-0.0176263	1	1.12131	12	-4.33824e-06
2	1	0	1	0	197.749	0.199853	0.199208	-0.0157688	1	1.12123	12	-3.14126e-06
2	1	0	1	0	202.349	0.153853	0.152787	-0.0133282	1	1.12117	12	-2.03637e-06
2	0	0	0	0	206.95	0.107852	0.105811	-0.0119559	1	1.12111	12	-1.26507e-06
2	0	0	0	0	211.55	0.0618508	0.0632795	-0.0100768	1	1.12106	12	-6.37657e-07
2	1	0	1	0	216.15	0.01585	0.0157382	-0.00930986	1	1.12101	12	-1.4652e-07
2	1	0	1	1	220.59	0.0285502	0.028605	-0.00556135	2	1.12098	12	-1.59082e-07
2	0	0	0	1	225.19	0.0745511	0.0730351	-0.00316359	2	1.12096	12	-2.31053e-07
2	1	0	0	1	229.79	0.120552	0.117415	-0.00170363	2	1.12095	12	-2.00033e-07
2	1	0	1	1	234.391	0.166553	0.166433	0.00048903	2	1.12094	12	8.13907e-08
2	0	0	1	1	238.991	0.212554	0.210361	0.00177471	2	1.12095	12	3.7333e-07
2	0	0	0	1	243.591	0.258554	0.258728	0.00437029	2	1.12097	12	1.13072e-06
2	1	0	0	1	248.191	0.304555	0.300934	0.00866764	2	1.121	12	2.60839e-06
2	0	0	0	1	252.791	0.350556	0.351784	0.0141296	2	1.12105	12	4.97055e-06
2	1	0	1	1	257.391	0.396557	0.39768	0.0228777	2	1.12114	12	9.09798e-06
2	1	0	1	1	261.991	0.442558	0.440727	0.0338518	2	1.12127	12	1.49194e-05
2	1	0	0	1	266.591	0.488559	0.490492	0.0453064	2	1.12146	12	2.22224e-05
2	1	0	0	1	271.191	0.53456	0.533059	0.0581028	2	1.1217	12	3.09722e-05
2	1	0	1	1	275.791	0.58056	0.581609	0.0829669	2	1.12201	12	4.82543e-05
2	1	0	1	1	280.391	0.626561	0.626664	0.214774	2	1.12262	12	0.000134591
2	1	0	1	1	284.991	0.672562	0.67257	0.721839	2	1.12457	12	0.000485487
2	1	0	0	1	289.622	0.718863	0.719618	2.01429	2	1.13053	11	0.00144952
2	1	0	0	1	294.222	0.764864	0.761304	4.51937	2	1.14501	11	0.00344062
2	1	0	1	1	298.822	0.810865	0.812081	8.62331	2	1.17461	11	0.00700283
2	1	0	1	1	303.452	0.857166	0.855774	14.4441	2	1.22747	10	0.0123609
2	1	0	0	1	308.052	0.903166	0.900559	21.6235	2	1.30998	10	0.0194732
2	1	0	0	1	312.652	0.949167	0.949442	29.8442	2	1.42813	10	0.0283353
2	1	0	1	1	317.252	0.995168	0.994445	38.7571	2	1.58561	10	0.0385418
2	1	0	0	1	321.693	0.960468	0.958833	30.1444	2	1.7419	10	0.0289034
2	1	0	0	1	326.293	0.914467	0.915978	20.8771	2	1.85834	10	0.019123
2	1	0	1	1	330.893	0.868466	0.869098	13.4707	2	1.93649	10	0.0117074
2	1	0	1	1	335.493	0.822465	0.820629	8.03535	2	1.98518	10	0.00659404
2	1	0	0	1	340.123	0.776164	0.776698	4.4071	2	2.01338	11	0.00342299
2	1	0	0	1	344.723	0.730163	0.730815	2.1942	2	2.02812	11	0.00160355
2	1	0	0	1	349.323	0.684162	0.685607	0.952046	2	2.03506	11	0.000652729
2	1	0	1	1	353.953	0.637861	0.633897	0.329731	2	2.03783	12	0.000209016
2	1	0	1	1	358.553	0.591861	0.590346	0.0841518	2	2.03868	12	4.96787e-05
2	1	0	0	1	363.154	0.54586	0.542661	0.0109605	2	2.03886	12	5.9478e-06
[...]
2	0	0	0	1	409.154	0.0858513	0.0843988	-0.0109106	2	2.03822	12	-9.20841e-07
2	0	0	1	1	413.754	0.0398495	0.0377427	-0.00968264	2	2.03817	12	-3.65449e-07
2	1	0	1	0	418.195	0.00454977	0.00596135	-0.0080865	3	2.03813	12	-4.82064e-08
2	0	0	0	0	422.795	0.0505506	0.0475392	-0.0046667	3	2.0381	12	-2.21851e-07
2	0	0	0	0	427.395	0.0965515	0.0960903	-0.00293363	3	2.03809	12	-2.81894e-07
2	1	0	0	0	431.995	0.142552	0.145132	-0.000942533	3	2.03808	12	-1.36792e-07
2	0	0	1	0	436.595	0.188553	0.188329	0.000673986	3	2.03808	12	1.26931e-07
2	0	0	1	0	441.195	0.234554	0.238296	0.00221685	3	2.03809	12	5.28267e-07
2	1	0	0	0	445.796	0.280555	0.277965	0.00584527	3	2.03811	12	1.62478e-06
2	1	0	0	0	450.396	0.326556	0.333783	0.00949134	3	2.03814	12	3.16805e-06
2	1	0	1	0	454.996	0.372557	0.367978	0.014876	3	2.0382	12	5.47406e-06
2	0	0	1	0	459.596	0.418557	0.421725	0.0234986	3	2.03829	12	9.90996e-06
2	1	0	0	0	464.196	0.464558	0.463649	0.0329474	3	2.03842	12	1.5276e-05
2	1	0	0	0	468.796	0.510559	0.512007	0.043342	3	2.0386	12	2.21914e-05
2	1	0	0	0	473.396	0.55656	0.554024	0.0555461	3	2.03882	12	3.07739e-05
2	1	0	1	0	477.996	0.602561	0.604108	0.0982866	3	2.03916	12	5.93757e-05
2	1	0	1	0	482.596	0.648562	0.647418	0.306262	3	2.03999	12	0.000198279
2	1	0	0	0	487.196	0.694563	0.692845	0.961658	3	2.04266	12	0.00066628
2	1	0	0	0	491.826	0.740863	0.742013	2.46676	3	2.0502	11	0.00183037
2	1	0	1	0	496.427	0.786864	0.781565	5.23829	3	2.06738	11	0.00409406
2	1	0	1	0	501.027	0.832865	0.83338	9.54772	3	2.10082	11	0.00795688
2	1	0	1	0	505.657	0.879166	0.875088	15.3415	3	2.15798	10	0.0134251
2	1	0	0	0	510.257	0.925167	0.922914	22.1696	3	2.24389	10	0.0204606
2	1	0	0	0	514.857	0.971168	0.97093	29.7601	3	2.36309	10	0.0288949
2	1	0	0	0	519.298	0.984468	0.985563	31.2473	3	2.50768	10	0.0307961
2	1	0	0	0	523.898	0.938467	0.938197	22.1035	3	2.62969	10	0.0207374
2	1	0	0	0	528.498	0.892466	0.892367	14.7344	3	2.71369	10	0.0131485
2	1	0	1	0	533.098	0.846465	0.847293	9.21138	3	2.76813	10	0.00780474
2	1	0	1	0	537.698	0.800464	0.799396	5.29566	3	2.80087	10	0.00423333
2	1	0	0	0	542.328	0.754164	0.757317	2.75367	3	2.81901	11	0.0020854
2	1	0	0	0	546.928	0.708163	0.708442	1.27046	3	2.82791	11	0.00090005
2	1	0	1	0	551.528	0.662162	0.664882	0.491068	3	2.83173	11	0.000326503
2	1	0	1	0	556.158	0.615861	0.612029	0.146491	3	2.83307	12	8.96568e-05
2	1	0	1	0	560.758	0.56986	0.569925	0.0319452	3	2.83343	12	1.82064e-05
2	1	0	0	0	565.358	0.523859	0.524675	0.00120236	3	2.83348	12	6.30846e-07
2	0	0	0	0	569.958	0.477859	0.477622	-0.00824078	3	2.83346	12	-3.93598e-06
2	0	0	1	0	574.559	0.431858	0.433333	-0.0112906	3	2.83341	12	-4.89261e-06
2	0	0	1	0	579.159	0.385857	0.387116	-0.0144668	3	2.83335	12	-5.60034e-06
2	0	0	0	0	583.759	0.339856	0.339667	-0.0152379	3	2.83328	12	-5.1758e-06
2	0	0	0	0	588.359	0.293855	0.294452	-0.0158195	3	2.8332	12	-4.65809e-06
2	0	0	1	0	592.959	0.247854	0.246488	-0.0140558	3	2.83313	12	-3.46459e-06
2	0	0	1	0	597.559	0.201853	0.203106	-0.0138358	3	2.83307	12	-2.81013e-06
2	0	0	1	0	602.159	0.155853	0.154676	-0.0118502	3	2.83301	12	-1.83295e-06
2	1	0	0	0	606.759	0.109852	0.108495	-0.0103869	3	2.83296	12	-1.12692e-06
2	0	0	0	0	611.359	0.0638509	0.0665285	-0.00937552	3	2.83291	12	-6.2374e-07
2	0	0	1	0	615.959	0.01785	0.0155738	-0.00914271	3	2.83287	12	-1.42386e-07
2	0	0	0	1	620.4	-0.0265508	-0.0274445	-0.00860249	3	2.83283	12	2.36091e-07
2	0	0	1	1	625	-0.0725517	-0.0743897	-0.00826609	3	2.83279	12	6.14912e-07
2	0	0	1	1	629.6	-0.118553	-0.119927	-0.00795959	3	2.83275	12	9.54572e-07
2	0	0	1	1	634.2	-0.164553	-0.164111	-0.00822019	3	2.83271	12	1.34903e-06
2	1	0	1	1	635.494	-0.177504	-0.179072	-0.0148326	3	2.8327	12	2.6561e-06

File: 2023_01_20_CoNiFeNx_400ºC_24h_electrode3_set1_20012023_C05.mpt
EC-Lab ASCII FILE
Nb header lines : 64

Potentio Electrochemical Impedance Spectroscopy

Run on channel : 5 (SN 30436)
User :
CE vs. WE compliance from -10 V to 10 V
Electrode connection : standard
Potential control : Ewe
Ewe ctrl range : min = -2.50 V, max = 2.50 V
Safety Limits :
	Do not start on E overload
Acquisition started on : 01/20/2023 15:27:01.195
Loaded Setting File :  NONE
Saved on :
	File : 2023_01_20_CoNiFeNx_400ºC_24h_electrode1_set1_20012023_C05.mpr
	Directory : C:\Users\grupogalan\Documents\EC-Lab\Data\Lole Jurado\
	Host : 169.254.104.159
Device : VSP (SN 1176)
Address : USB
EC-Lab for windows v11.46 (software)
Internet server v11.40 (firmware)
Command interpretor v11.40 (firmware)
Electrode material :
Initial state :
Electrolyte :
Comments :
Electrode surface area : 0.001 cm²
Characteristic mass : 0.001 g
Equivalent Weight : 0.000 g/eq.
Density : 0.000 g/cm3
Volume (V) : 0.001 cm³
Record Ece
Cycle Definition : Charge/Discharge alternance
Mode                Single sine
E (V)               0.0000
vs.                 Eoc
tE (h:m:s)          0:00:0.0000
record              0
dI                  0.000
unit dI             mA
dt (s)              0.000
fi                  200.000
unit fi             kHz
ff                  100.000
unit ff             mHz
Nd                  6
Points              per decade
spacing             Logarithmic
Va (mV)             10.0
pw                  0.10
Na                  2
corr                0
E range min (V)     -2.500
E range max (V)     2.500
I Range             Auto
Bandwidth           5
nc cycles           0
goto Ns'            0
nr cycles           0
inc. cycle          0

freq/Hz	Re(Z)/Ohm	-Im(Z)/Ohm	|Z|/Ohm	Phase(Z)/deg	time/s	<Ewe>/V	<I>/mA	Cs/µF	Cp/µF	cycle number	I Range	|Ewe|/V	|I|/A	Ns	(Q-Qo)/mA.h	<Ece>/V	|Ece|/V	Phase(Zce)/deg	|Zce|/Ohm	Re(Zce)/Ohm	-Im(Zce)/Ohm	Phase(Zwe-ce)/deg	|Zwe-ce|/Ohm	Re(Zwe-ce)/Ohm	-Im(Zwe-ce)/Ohm	Re(Y)/Ohm-1	Im(Y)/Ohm-1	|Y|/Ohm-1	Phase(Y)/deg	dq/mA.h
199998	1.8718	-1.45507	2.37084	37.8602	2.19854	-0.140499	-0.168763	-0.546903	-0.206004	1	9	0.00813175	0.00342991	0	-2.12291e-05	-0.111317	0.0037992	-22.0258	1.10767	1.02683	0.415402	19.7317	3.07944	2.89863	-1.03967	0.333009	-0.258869	0.421792	-37.8602	-2.12291e-05
91291.2	1.17944	-0.330808	1.22496	15.6677	3.07453	-0.140184	-0.100709	-5.27005	-0.38435	1	9	0.010715	0.00874727	0	-6.66908e-05	-0.110878	0.0157968	3.84518	1.80591	1.80185	-0.121106	8.61948	3.01535	2.98129	-0.451914	0.786024	-0.220463	0.816356	-15.6677	-2.55749e-05
41669.8	1.10457	0.06048	1.10623	-3.13406	3.82852	-0.140926	-0.163396	63.152	0.188766	1	9	0.00999249	0.00903296	0	-0.00012382	-0.0972396	0.0163202	0.21329	1.80674	1.80672	-0.00672576	-1.05779	2.91179	2.9113	0.0537543	0.902623	0.0494225	0.903975	3.13406	-1.50728e-05
19020.9	1.14826	0.24165	1.17342	-11.8844	4.70455	-0.139945	-0.0701476	34.6259	1.46849	1	9	0.0100951	0.00860317	0	-7.31779e-05	-0.11105	0.0148915	-1.9759	1.73094	1.72991	0.0596812	-5.97683	2.8939	2.87817	0.301331	0.833946	0.175502	0.852213	11.8844	3.28126e-05
8684.68	1.19675	0.642781	1.35844	-28.2406	5.45856	-0.140199	-0.162092	28.5104	6.38331	1	9	0.00988797	0.0072789	0	-0.000101286	-0.102512	0.012892	-2.26567	1.77114	1.76976	0.0700187	-13.511	3.05094	2.9665	0.712799	0.648513	0.348321	0.736137	28.2406	-8.27281e-06
3960.08	1.30373	1.27605	1.82429	-44.3852	6.01487	-0.140114	-0.178304	31.4955	15.4098	1	9	0.00958196	0.00525244	0	-0.000121348	-0.104517	0.00974026	-5.48555	1.85443	1.84593	0.177273	-24.7696	3.4688	3.14967	1.45333	0.391743	0.383426	0.548159	44.3852	-1.45031e-05
1808.26	1.64317	2.51549	3.00461	-56.8466	7.10309	-0.139642	-0.150576	34.9893	24.5247	1	9	0.0104729	0.00348561	0	-0.000158328	-0.101041	0.00732251	-9.1152	2.10079	2.07426	0.332807	-37.4594	4.68317	3.71743	2.8483	0.182014	0.278642	0.332822	56.8466	-2.25924e-05
825.264	1.73336	4.98007	5.27311	-70.809	8.23677	-0.140336	-0.0146374	38.725	34.5406	1	10	0.00965906	0.00183176	0	-0.000173708	-0.11552	0.00423865	0.550667	2.31398	2.31387	-0.0222392	-50.7742	6.40002	4.04724	4.95783	0.0623385	0.179103	0.189641	70.809	-3.16541e-06
377.051	2.12362	10.9472	11.1513	-79.0217	9.12675	-0.140233	-0.0278762	38.5583	37.1599	1	10	0.00981088	0.0008798	0	-0.000178864	-0.127019	0.00180026	-35.8266	2.04621	1.65905	1.19772	-72.7002	12.7203	3.78267	12.1449	0.0170777	0.0880349	0.089676	79.0217	-3.33651e-06
172.037	3.69026	23.7225	24.0078	-81.158	10.2555	-0.139677	-0.00191448	38.9976	38.0762	1	11	0.0102387	0.000426474	0	-0.00018332	-0.107612	0.00115943	-42.7356	2.71865	1.99683	1.84492	-77.4596	26.1923	5.68708	25.5674	0.00640251	0.0411581	0.0416531	81.158	-1.79107e-06
78.5176	5.90071	47.1215	47.4895	-82.8624	11.1496	-0.139052	0.000964799	43.0164	42.3523	1	11	0.00963851	0.000202961	0	-0.000183802	-0.109656	0.00104485	-52.884	5.14806	3.1065	4.10514	-80.0276	52.0125	9.00721	51.2266	0.00261643	0.0208941	0.0210573	82.8624	-1.02723e-07
35.8372	5.94832	100.347	100.523	-86.6076	12.0462	-0.140224	-0.00174187	44.257	44.1021	1	11	0.00987826	9.82685e-05	0	-0.00018453	-0.1202	0.00102237	-68.6986	10.4038	3.77943	9.69306	-84.9481	110.469	9.72775	110.04	0.000588657	0.00993053	0.00994796	86.6076	-1.6906e-07
16.367	40.5631	209.226	213.122	-79.028	13.1641	-0.140444	-0.00075342	46.4768	44.7932	1	12	0.0102532	4.81094e-05	0	-0.000184597	-0.110401	0.000872025	-46.1863	18.1259	12.5488	13.0795	-76.5631	228.562	53.112	222.305	0.000893051	0.00460638	0.00469215	79.028	1.15641e-07
7.46893	100.529	421.096	432.929	-76.5729	13.8777	-0.140944	-0.00215881	50.6035	47.875	1	12	0.0103733	2.39607e-05	0	-0.000184856	-0.132062	0.00136542	-50.8215	56.9857	36.0001	44.1743	-73.6461	484.888	136.529	465.27	0.000536363	0.00224671	0.00230985	76.5729	1.90589e-08
3.4086	186.753	812.344	833.534	-77.053	15.2974	-0.140544	-0.000733372	57.4784	54.5931	1	13	0.00960047	1.15178e-05	0	-0.000185037	-0.10935	0.000486508	-93.7279	42.2397	-2.74637	42.1503	-77.8475	874.081	184.006	854.494	0.000268795	0.00116921	0.00119971	77.053	-2.38914e-07
1.55627	467.886	1675.82	1739.91	-74.4004	17.6079	-0.140117	-0.000391725	61.0247	56.6117	1	13	0.00995508	5.7216e-06	0	-0.000185419	-0.101728	0.000659878	-38.1483	115.331	90.698	71.2399	-72.2695	1834.19	558.584	1747.06	0.000154556	0.00055357	0.000574741	74.4004	-1.23325e-07
0.710357	927.037	3292.47	3420.49	-74.2747	47.777	-0.140506	-0.000583217	68.0491	63.0506	1	13	0.0102387	2.99334e-06	0	-0.000189166	-0.113323	0.000596494	-61.4159	199.274	95.3421	174.985	-73.5718	3615.03	1022.38	3467.45	7.92357e-05	0.000281414	0.000292356	74.2747	-2.36732e-06
0.324439	2253.62	6566.56	6942.52	-71.058	111.976	-0.140464	-0.000610111	74.7048	66.833	1	13	0.0102222	1.47241e-06	0	-0.000199144	-0.109828	0.000517904	-41.5687	351.74	263.158	233.385	-69.6896	7250.76	2516.78	6799.95	4.67571e-05	0.00013624	0.00014404	71.058	-5.93859e-06
0.147897	4955.79	12562.4	13504.5	-68.471	251.184	-0.140308	-0.00042141	85.6624	74.1264	1	13	0.0100099	7.41226e-07	0	-0.000219243	-0.108128	0.000308116	-68.4976	415.684	152.365	386.753	-68.4718	13920.2	5108.16	12949.1	2.7174e-05	6.88829e-05	7.40492e-05	68.471	-1.07006e-05
0.0999041	9374.2	14989.6	17679.5	-57.9789	373.766	-0.140386	6.12245e-05	106.279	76.3992	1	13	0.0101089	5.7179e-07	0	-0.000222659	-0.119092	0.000378141	-54.5992	661.328	383.102	539.062	-57.8571	18339.7	9757.3	15528.6	2.99914e-05	4.7957e-05	5.65628e-05	57.9789	-3.41645e-06