Folder: EC-Lab-Processing/Data_Lola/CoNiFeNx_400ºC_24h_13102022/Electrodes_20012023/Set 2 (part 2)

File: 2023_01_23_CoNiFeNx_400ºC_24h_electrode1_set2_20012023_C05.mpt
EC-Lab ASCII FILE
Nb header lines : 64

Potentio Electrochemical Impedance Spectroscopy

Run on channel : 5 (SN 30436)
User :
CE vs. WE compliance from -10 V to 10 V
Electrode connection : standard
Potential control : Ewe
Ewe ctrl range : min = -2.50 V, max = 2.50 V
Safety Limits :
	Do not start on E overload
Acquisition started on : 01/23/2023 11:50:29.395
Loaded Setting File :  NONE
Saved on :
	File : 2023_01_23_CoNiFeNx_400ºC_24h_electrode1_set2_20012023_C05.mpr
	Directory : C:\Users\grupogalan\Documents\EC-Lab\Data\Lole Jurado\
	Host : 169.254.104.159
Device : VSP (SN 1176)
Address : USB
EC-Lab for windows v11.46 (software)
Internet server v11.40 (firmware)
Command interpretor v11.40 (firmware)
Electrode material :
Initial state :
Electrolyte :
Comments :
Electrode surface area : 0.001 cm²
Characteristic mass : 0.001 g
Equivalent Weight : 0.000 g/eq.
Density : 0.000 g/cm3
Volume (V) : 0.001 cm³
Record Ece
Cycle Definition : Charge/Discharge alternance
Mode                Single sine
E (V)               0.0000
vs.                 Eoc
tE (h:m:s)          0:00:0.0000
record              0
dI                  0.000
unit dI             mA
dt (s)              0.000
fi                  200.000
unit fi             kHz
ff                  100.000
unit ff             mHz
Nd                  6
Points              per decade
spacing             Logarithmic
Va (mV)             10.0
pw                  0.10
Na                  2
corr                0
E range min (V)     -2.500
E range max (V)     2.500
I Range             Auto
Bandwidth           5
nc cycles           0
goto Ns'            0
nr cycles           0
inc. cycle          0

freq/Hz	Re(Z)/Ohm	-Im(Z)/Ohm	|Z|/Ohm	Phase(Z)/deg	time/s	<Ewe>/V	<I>/mA	Cs/µF	Cp/µF	cycle number	I Range	|Ewe|/V	|I|/A	Ns	(Q-Qo)/mA.h	<Ece>/V	|Ece|/V	Phase(Zce)/deg	|Zce|/Ohm	Re(Zce)/Ohm	-Im(Zce)/Ohm	Phase(Zwe-ce)/deg	|Zwe-ce|/Ohm	Re(Zwe-ce)/Ohm	-Im(Zwe-ce)/Ohm	Re(Y)/Ohm-1	Im(Y)/Ohm-1	|Y|/Ohm-1	Phase(Y)/deg	dq/mA.h
199998	1.79454	-1.45108	2.30782	38.9593	2.50952	-0.12934	-0.166862	-0.548407	-0.216812	1	9	0.00791303	0.0034288	0	-3.02161e-05	0.0648565	0.00562522	-11.1003	1.64058	1.60989	0.315857	18.4412	3.58871	3.40443	-1.13522	0.336939	-0.272451	0.43331	-38.9593	-3.02161e-05
91291.2	1.3444	-0.286367	1.37456	12.0247	3.26354	-0.129659	-0.156725	-6.08791	-0.264234	1	9	0.0101362	0.00737413	0	-7.17702e-05	0.0656588	0.0163943	3.03699	2.22322	2.2201	-0.117788	6.46877	3.58733	3.56449	-0.404154	0.711544	-0.151564	0.727507	-12.0247	-2.16042e-05
41669.8	1.34584	0.0511753	1.34682	-2.1776	4.26152	-0.129431	-0.15352	74.6344	0.107756	1	9	0.00966578	0.00717677	0	-0.000101508	0.0727837	0.0159682	1.48806	2.22498	2.22423	-0.0577797	0.105994	3.57008	3.57007	-0.00660446	0.741956	0.0282126	0.742492	2.1776	-1.09979e-05
19020.9	1.34044	0.302647	1.37418	-12.7231	5.01554	-0.129586	-0.164738	27.6472	1.34103	1	9	0.0105695	0.00769155	0	-0.000206641	0.0622778	0.0169762	0.40035	2.20713	2.20708	-0.015422	-4.62887	3.55912	3.54751	0.287225	0.70984	0.16027	0.727708	12.7231	-9.33001e-05
8684.68	1.46424	0.67598	1.61275	-24.7808	5.76953	-0.129912	-0.150538	27.1102	4.76286	1	9	0.0100497	0.00623139	0	-0.000228038	0.0721342	0.0138977	-1.46483	2.23028	2.22955	0.0570132	-11.2239	3.76581	3.69379	0.732994	0.562963	0.259897	0.62006	24.7808	-4.93373e-06
3960.08	1.56954	1.19936	1.97533	-37.3851	6.32582	-0.129729	-0.19187	33.5094	12.3534	1	9	0.00952022	0.00481956	0	-0.000263382	0.0665566	0.0106882	-3.49687	2.21768	2.21355	0.135265	-19.4322	4.01161	3.78309	1.33463	0.402248	0.307376	0.506244	37.3851	-2.04754e-05
1808.26	1.68415	2.55781	3.06248	-56.6378	7.41509	-0.129452	-0.163322	34.4104	24.0039	1	9	0.0101221	0.00330521	0	-0.000305052	0.0867852	0.00769073	-9.82649	2.32685	2.29271	0.397112	-36.6134	4.95449	3.97686	2.95493	0.17957	0.272724	0.326533	56.6378	-2.63741e-05
825.264	1.93078	5.05551	5.41166	-69.0974	8.54878	-0.129307	-0.0258368	38.1471	33.2913	1	10	0.00978116	0.00180742	0	-0.000321096	0.0681993	0.00454278	-14.3671	2.5134	2.4348	0.623661	-52.4506	7.16319	4.36557	5.67917	0.0659281	0.172625	0.184786	69.0974	-3.24778e-06
377.051	2.55178	10.9262	11.2202	-76.8544	9.43881	-0.129338	-0.0246252	38.6324	36.6342	1	10	0.00994266	0.000886139	0	-0.000326596	0.0669577	0.0023687	-19.9586	2.67306	2.51251	0.912425	-66.8399	12.8763	5.06429	11.8386	0.0202694	0.0867894	0.0891249	76.8544	-3.36984e-06
172.037	4.70427	22.7633	23.2443	-78.3236	10.3255	-0.129623	-0.028853	40.6409	38.9763	1	10	0.0101034	0.000434663	0	-0.000332283	0.0668431	0.00121257	-34.88	2.78968	2.28852	1.59531	-73.9825	25.3425	6.99278	24.3586	0.00870679	0.042131	0.0430212	78.3236	-3.06885e-06
78.5176	9.09428	44.6099	45.5274	-78.4774	11.4616	-0.129461	-0.00279583	45.4383	43.6252	1	11	0.00977794	0.00021477	0	-0.000334332	0.0771198	0.0012278	-44.3224	5.7168	4.08991	3.9943	-74.8234	50.3606	13.1842	48.6042	0.00438755	0.0215221	0.0219648	78.4774	-4.79165e-07
35.8372	16.9834	90.6966	92.273	-79.3939	12.3582	-0.129691	-0.00341956	48.9661	47.3073	1	11	0.00982943	0.000106526	0	-0.000335168	0.0708353	0.000922037	-64.1652	8.65555	3.7719	7.79047	-78.0995	100.65	20.7553	98.4871	0.00199469	0.0106523	0.0108374	79.3939	-6.07315e-07
16.367	44.4233	175.377	180.916	-75.7859	13.4542	-0.129592	-0.00118202	55.4471	52.104	1	12	0.0098337	5.43551e-05	0	-0.000335452	0.0552675	0.000595157	-22.5633	10.9494	10.1113	4.20134	-73.1075	187.677	54.5346	179.579	0.00135724	0.0053582	0.00552743	75.7859	9.08606e-08
7.46893	81.3529	337.994	347.646	-76.4667	14.1677	-0.129475	-0.00137072	63.0454	59.5929	1	12	0.00963891	2.77262e-05	0	-0.000335527	0.0671869	0.000749678	-53.1968	27.0386	16.198	21.6498	-74.8241	372.639	97.5509	359.643	0.000673128	0.00279662	0.00287649	76.4667	1.96984e-07
3.4086	225.296	655.876	693.492	-71.0422	15.2513	-0.129629	-0.000557553	71.1907	63.6771	1	12	0.0100342	1.44691e-05	0	-0.000335779	0.0616093	0.000874597	-64.9671	60.4457	25.5769	54.7677	-70.5559	753.625	250.873	710.644	0.000468457	0.00136376	0.00144198	71.0422	-2.34227e-07
1.55627	397.879	1221.75	1284.9	-71.9614	18.0399	-0.129487	-0.000352949	83.7052	75.6789	1	13	0.00971927	7.56421e-06	0	-0.000335965	0.0687724	0.000721074	-67.7802	95.3271	36.049	88.2482	-71.6729	1379.99	433.928	1310	0.000240996	0.000740016	0.000778269	71.9614	7.79298e-09
0.710357	840.489	2257.79	2409.16	-69.5816	38.122	-0.129621	-0.000358596	99.2338	87.1559	1	13	0.0100977	4.19137e-06	0	-0.000337806	0.0711028	0.000590377	-70.3606	140.855	47.3415	132.661	-69.6247	2550	887.831	2390.45	0.000144811	0.000389003	0.000415083	69.5816	-1.82769e-06
0.324439	1949.8	4253.06	4678.7	-65.3711	80.3312	-0.129523	-0.000573683	115.341	95.3098	1	14	0.0101162	2.16217e-06	0	-0.000344716	0.0729174	0.00059112	-63.839	273.391	120.537	245.385	-65.2866	4952	2070.33	4498.45	8.90714e-05	0.00019429	0.000213734	65.3711	-3.02e-06
0.147897	4396.84	7247.08	8476.58	-58.7546	104.2	-0.129523	-0.000653394	148.49	108.538	1	14	0.0100803	1.1892e-06	0	-0.000348663	0.0648756	0.000703991	-63.0292	591.988	268.488	527.602	-59.0334	9067.03	4665.33	7774.68	6.11927e-05	0.000100861	0.000117972	58.7546	-2.37638e-06
0.0999041	6566.06	9092.41	11215.4	-54.1652	125.273	-0.129531	-0.000706148	175.21	115.156	1	14	0.0101554	9.0549e-07	0	-0.000352503	0.0760692	0.000782634	-75.725	864.321	213.121	837.634	-55.6789	12023.4	6779.18	9930.04	5.22006e-05	7.22853e-05	8.91632e-05	54.1652	-3.83985e-06

File: 2023_01_23_CoNiFeNx_400ºC_24h_electrode2_set2_20012023_1_01_CV_C02.mpt
EC-Lab ASCII FILE
Nb header lines : 57

Cyclic Voltammetry

Run on channel : 2 (SN 12477)
User :
CE vs. WE compliance from -10 V to 10 V
Electrode connection : standard
Potential control : Ewe
Ewe ctrl range : min = -2.50 V, max = 2.50 V
Safety Limits :
	Do not start on E overload
Acquisition started on : 01/23/2023 12:38:23.307
Loaded Setting File :  C:\Users\grupogalan\Documents\EC-Lab\Data\Lole Jurado\2023_01_23_CoNiFeNx_400ºC_24h_electrode1__set2_20012023_1.mps
Saved on :
	File : 2023_01_23_CoNiFeNx_400ºC_24h_electrode2_set2_20012023_1_01_CV_C02.mpr
	Directory : C:\Users\grupogalan\Documents\EC-Lab\Data\Lole Jurado\
	Host : 169.254.104.159
Device : VSP (SN 1176)
Address : USB
EC-Lab for windows v11.46 (software)
Internet server v11.40 (firmware)
Command interpretor v11.40 (firmware)
Electrode material :
Initial state :
Electrolyte :
Comments :
Electrode surface area : 0.000 cm²
Characteristic mass : 0.001 g
Equivalent Weight : 0.000 g/eq.
Density : 0.000 g/cm3
Volume (V) : 0.001 cm³
Cycle Definition : Charge/Discharge alternance
Ei (V)              0.000
vs.                 Eoc
dE/dt               10.000
dE/dt unit          mV/s
E1 (V)              1.000
vs.                 Ref
Step percent        50
N                   10
E range min (V)     -2.500
E range max (V)     2.500
I Range             Auto
I Range min         Unset
I Range max         Unset
I Range init        Unset
Bandwidth           5
E2 (V)              0.000
vs.                 Ref
nc cycles           2
Reverse Scan        1
Ef (V)              0.000
vs.                 Eoc

mode	ox/red	error	control changes	counter inc.	time/s	control/V	Ewe/V	<I>/mA	cycle number	(Q-Qo)/C	I Range	P/W
2	1	0	1	0	0.000000000000000E+000	-0.16757	-0.168543	0.000535691	1	0.0000000E+000	14	-9.02869e-08
2	1	0	1	0	4.4862	-0.12271	-0.123479	0.0126664	1	2.61936e-05	13	-1.56404e-06
2	1	0	0	0	8.9872	-0.077699	-0.0780148	0.0308769	1	0.000134917	13	-2.40886e-06
2	1	0	1	0	13.4882	-0.0326884	-0.0328123	0.0270197	1	0.000271118	13	-8.86578e-07
2	1	0	1	0	17.9894	0.0123222	0.0122492	0.0223678	1	0.000384177	13	2.73988e-07
2	1	0	0	0	22.4904	0.0573327	0.0572958	0.0180869	1	0.00047883	13	1.0363e-06
2	1	0	1	0	26.9914	0.102343	0.102183	0.0158518	1	0.000557932	13	1.61979e-06
2	1	0	1	0	31.4925	0.147355	0.147114	0.0169134	1	0.000633509	13	2.4882e-06
2	1	0	0	0	35.9936	0.192364	0.191828	0.0224222	1	0.00072466	13	4.3012e-06
2	1	0	1	0	40.4946	0.237375	0.237037	0.02678	1	0.000838825	13	6.34784e-06
2	1	0	0	0	44.9956	0.282386	0.281685	0.0325756	1	0.000974611	13	9.17606e-06
2	1	0	0	0	49.4968	0.327396	0.326764	0.0429141	1	0.00114549	13	1.40228e-05
2	1	0	1	0	53.9978	0.372407	0.372353	0.0652403	1	0.00138934	13	2.42924e-05
2	1	0	0	0	58.5288	0.417717	0.41679	0.110362	1	0.00178384	12	4.59977e-05
2	1	0	1	0	63.0299	0.462727	0.46242	0.187099	1	0.0024413	12	8.65181e-05
2	1	0	1	0	67.531	0.507738	0.507298	0.306092	1	0.00355149	12	0.00015528
2	1	0	0	0	72.032	0.552749	0.552341	0.44479	1	0.0052421	12	0.000245675
2	1	0	1	0	76.533	0.597759	0.597718	0.628363	1	0.00764218	12	0.000375584
2	1	0	1	0	81.0642	0.64307	0.64265	1.16263	1	0.0114033	11	0.000747166
2	1	0	0	0	85.5652	0.688081	0.688114	3.40191	1	0.0207842	11	0.0023409
2	1	0	1	0	90.0662	0.733091	0.73296	8.19953	1	0.0459822	11	0.00600993
2	1	0	1	0	94.5974	0.778402	0.778065	15.4083	1	0.098685	10	0.0119887
2	1	0	0	0	99.0984	0.823412	0.823141	24.547	1	0.188015	10	0.0202056
2	1	0	1	0	103.599	0.868423	0.867987	35.3052	1	0.322203	10	0.0306444
2	1	0	0	0	108.1	0.913433	0.91265	47.3096	1	0.507904	10	0.0431771
2	1	0	0	0	112.602	0.958444	0.9581	60.4143	1	0.750139	10	0.057883
2	1	0	0	0	117.013	0.997453	0.997154	72.1128	1	1.04626	10	0.0719076
2	1	0	1	0	121.514	0.952443	0.951993	56.756	1	1.33565	10	0.0540314
2	1	0	0	0	126.015	0.907432	0.907444	43.257	1	1.55996	10	0.0392533
2	1	0	1	0	130.516	0.862422	0.862177	31.9643	1	1.72832	10	0.0275589
2	1	0	1	0	135.017	0.817411	0.817471	22.1898	1	1.84949	10	0.0181395
2	1	0	0	0	139.518	0.772401	0.772175	14.2126	1	1.9307	10	0.0109746
2	1	0	1	0	144.019	0.72739	0.726688	8.05854	1	1.9801	10	0.00585605
2	1	0	1	0	148.551	0.682079	0.681559	3.74634	1	2.00612	11	0.00255335
2	1	0	0	0	153.052	0.637069	0.636937	1.27093	1	2.01676	11	0.000809504
2	1	0	1	0	157.583	0.591758	0.591261	0.252699	1	2.01975	12	0.000149411
2	0	0	1	0	162.114	0.546448	0.545595	-0.00641534	1	2.02016	13	-3.50018e-06
2	0	0	0	0	166.615	0.501437	0.500796	-0.0692339	1	2.01995	13	-3.46721e-05
2	0	0	1	0	171.116	0.456426	0.455808	-0.0922346	1	2.01958	13	-4.20413e-05
2	0	0	1	0	175.647	0.411116	0.410463	-0.0995744	1	2.01913	12	-4.08716e-05
2	0	0	0	0	180.148	0.366105	0.365957	-0.101355	1	2.01867	12	-3.70916e-05
2	0	0	1	0	184.649	0.321095	0.320705	-0.100518	1	2.01821	12	-3.22366e-05
2	0	0	0	0	189.15	0.276084	0.275823	-0.0888331	1	2.01777	12	-2.45022e-05
2	0	0	0	0	193.651	0.231073	0.230957	-0.0737018	1	2.0174	12	-1.70219e-05
2	0	0	1	0	198.152	0.186063	0.185428	-0.0593539	1	2.0171	12	-1.10058e-05
2	0	0	0	0	202.653	0.141052	0.140802	-0.0480442	1	2.01685	12	-6.76472e-06
2	0	0	0	0	207.184	0.0957417	0.0949844	-0.0398231	1	2.01665	13	-3.78258e-06
2	0	0	1	0	211.685	0.0507312	0.0498943	-0.0343359	1	2.01649	13	-1.71316e-06
2	0	0	0	0	216.186	0.00572063	0.00512878	-0.0306033	1	2.01634	13	-1.56958e-07
2	0	0	0	1	220.518	0.0375281	0.0373463	-0.0196957	2	2.01623	13	-7.35561e-07
2	0	0	1	1	225.019	0.0825386	0.0824067	-0.014065	2	2.01616	13	-1.15905e-06
2	0	0	0	1	229.52	0.127549	0.126999	-0.00971877	2	2.01611	13	-1.23428e-06
2	0	0	1	1	234.021	0.17256	0.172036	-0.0051052	2	2.01607	13	-8.7828e-07
2	1	0	1	1	238.522	0.21757	0.217	0.000777735	2	2.01607	13	1.68769e-07
2	1	0	0	1	243.023	0.262581	0.261793	0.00986298	2	2.01609	13	2.58206e-06
2	1	0	1	1	247.524	0.307591	0.307186	0.0248906	2	2.01617	13	7.64605e-06
2	1	0	1	1	252.025	0.352602	0.352485	0.0480775	2	2.01633	13	1.69466e-05
2	1	0	0	1	256.526	0.397613	0.397185	0.0839712	2	2.01663	13	3.33521e-05
2	1	0	1	1	261.057	0.442923	0.442789	0.135421	2	2.01714	12	5.99631e-05
2	1	0	1	1	265.558	0.487934	0.487951	0.178281	2	2.01786	12	8.69926e-05
2	1	0	0	1	270.06	0.532944	0.532682	0.223644	2	2.01877	12	0.000119131
2	1	0	1	1	274.561	0.577955	0.577446	0.293842	2	2.01993	12	0.000169678
2	1	0	0	1	279.062	0.622965	0.622117	0.648802	2	2.02181	12	0.000403631
2	1	0	0	1	283.593	0.668276	0.667859	2.43522	2	2.02801	11	0.00162638
2	1	0	1	1	288.094	0.713287	0.712526	6.62928	2	2.04748	11	0.00472353
2	1	0	0	1	292.625	0.758597	0.758079	13.3708	2	2.09192	10	0.0101361
2	1	0	1	1	297.126	0.803607	0.8032	22.2629	2	2.17138	10	0.0178815
2	1	0	1	1	301.627	0.848618	0.848418	32.995	2	2.29518	10	0.0279935
2	1	0	0	1	306.128	0.893629	0.893112	45.1087	2	2.47057	10	0.0402872
2	1	0	1	1	310.629	0.938639	0.93812	58.0584	2	2.70257	10	0.0544658
2	1	0	1	1	315.13	0.98365	0.982719	71.474	2	2.99414	10	0.0702389
2	1	0	1	1	319.522	0.972447	0.971546	66.5435	2	3.31188	10	0.0646501
2	1	0	0	1	324.023	0.927437	0.926902	52.5186	2	3.57901	10	0.0486796
2	1	0	1	1	328.524	0.882426	0.881977	39.7577	2	3.78603	10	0.0350654
2	1	0	1	1	333.025	0.837415	0.83685	28.55	2	3.93909	10	0.0238921
2	1	0	0	1	337.526	0.792405	0.791835	19.0795	2	4.04554	10	0.0151078
2	1	0	1	1	342.027	0.747395	0.746976	11.5261	2	4.11367	10	0.00860974
2	1	0	0	1	346.528	0.702384	0.702029	5.94732	2	4.1522	10	0.00417519
2	1	0	0	1	351.059	0.657073	0.656675	2.37279	2	4.17026	11	0.00155815
2	1	0	1	1	355.56	0.612063	0.611858	0.629298	2	4.1764	11	0.000385041
[...]
2	0	0	1	1	409.693	0.0707368	0.0703739	-0.0407033	2	4.17356	13	-2.86445e-06
2	0	0	0	1	414.194	0.0257253	0.0251038	-0.0353471	2	4.17339	13	-8.87346e-07
2	0	0	1	0	418.525	0.0175234	0.0171284	-0.0263201	3	4.17325	13	-4.50822e-07
2	0	0	1	0	423.026	0.0625339	0.0616826	-0.0190074	3	4.17315	13	-1.17243e-06
2	0	0	0	0	427.528	0.107545	0.107054	-0.0142351	3	4.17308	13	-1.52392e-06
2	0	0	1	0	432.029	0.152555	0.15139	-0.00976139	3	4.17303	13	-1.47778e-06
2	0	0	0	0	436.53	0.197566	0.197017	-0.00416889	3	4.173	13	-8.21342e-07
2	1	0	0	0	441.031	0.242576	0.242287	0.00385027	3	4.173	13	9.32871e-07
2	1	0	1	0	445.532	0.287587	0.28704	0.017008	3	4.17304	13	4.88199e-06
2	1	0	0	0	450.033	0.332597	0.332342	0.0377618	3	4.17317	13	1.25498e-05
2	1	0	1	0	454.534	0.377608	0.37769	0.0683422	3	4.17341	13	2.58122e-05
2	1	0	1	0	459.065	0.422918	0.422305	0.119406	3	4.17383	12	5.04256e-05
2	1	0	0	0	463.566	0.467929	0.467624	0.165959	3	4.17449	12	7.76064e-05
2	1	0	1	0	468.067	0.51294	0.512577	0.206556	3	4.17533	12	0.000105876
2	1	0	1	0	472.568	0.55795	0.556935	0.253353	3	4.17638	12	0.000141101
2	1	0	0	0	477.069	0.602961	0.602824	0.410807	3	4.17778	12	0.000247645
2	1	0	1	0	481.6	0.648271	0.647777	1.44169	3	4.1814	11	0.000933893
2	1	0	1	0	486.101	0.693282	0.692939	4.54038	3	4.19397	11	0.00314621
2	1	0	0	0	490.602	0.738293	0.737791	10.1261	3	4.2261	11	0.00747098
2	1	0	1	0	495.133	0.783603	0.783291	18.0995	3	4.28927	10	0.0141772
2	1	0	1	0	499.634	0.828613	0.828753	28.2131	3	4.39267	10	0.0233817
2	1	0	0	0	504.136	0.873624	0.872965	39.7896	3	4.54524	10	0.0347349
2	1	0	1	0	508.637	0.918635	0.918021	52.682	3	4.75257	10	0.0483632
2	1	0	0	0	513.138	0.963645	0.963073	66.4689	3	5.021	10	0.0640144
2	1	0	0	0	517.529	0.992452	0.992026	74.6591	3	5.33993	10	0.0740637
2	1	0	1	0	522.03	0.947442	0.947629	59.9214	3	5.64252	10	0.0567833
2	1	0	1	0	526.531	0.902431	0.901992	46.3124	3	5.88106	10	0.0417734
2	1	0	0	0	531.032	0.85742	0.857289	34.0535	3	6.06138	10	0.0291937
2	1	0	1	0	535.533	0.81241	0.811692	23.5792	3	6.19035	10	0.019139
2	1	0	1	0	540.035	0.767399	0.767211	14.8642	3	6.27603	10	0.011404
2	1	0	0	0	544.536	0.722389	0.721542	8.27569	3	6.32728	10	0.00597126
2	1	0	1	0	549.067	0.677078	0.676879	3.73583	3	6.35366	11	0.00252871
2	1	0	1	0	553.568	0.632068	0.631521	1.22693	3	6.36412	11	0.000774832
2	1	0	0	0	558.099	0.586757	0.586301	0.217942	3	6.36694	12	0.00012778
2	0	0	1	0	562.63	0.541446	0.541451	-0.0406795	3	6.36718	13	-2.20259e-05
2	0	0	1	0	567.131	0.496437	0.496508	-0.0970393	3	6.36684	13	-4.81808e-05
2	0	0	0	0	571.662	0.451125	0.450823	-0.111626	3	6.36635	12	-5.03235e-05
2	0	0	1	0	576.163	0.406115	0.405309	-0.118101	3	6.36583	12	-4.78673e-05
2	0	0	0	0	580.664	0.361104	0.360157	-0.120072	3	6.36528	12	-4.32449e-05
2	0	0	0	0	585.165	0.316093	0.315646	-0.117149	3	6.36474	12	-3.69776e-05
2	0	0	1	0	589.666	0.271083	0.27075	-0.103046	3	6.36424	12	-2.78996e-05
2	0	0	0	0	594.167	0.226072	0.225532	-0.0861165	3	6.36381	12	-1.94221e-05
2	0	0	0	0	598.668	0.181062	0.180335	-0.0697518	3	6.36346	12	-1.25787e-05
2	0	0	1	0	603.169	0.136051	0.135834	-0.0562904	3	6.36317	12	-7.64614e-06
2	0	0	0	0	607.67	0.0910406	0.0906949	-0.0464166	3	6.36294	12	-4.20975e-06
2	0	0	1	0	612.201	0.0457298	0.0456042	-0.039961	3	6.36274	13	-1.82239e-06
2	0	0	1	0	616.703	0.000719453	0.000528548	-0.0351301	3	6.36257	13	-1.85679e-08
2	0	0	1	1	621.034	-0.0425907	-0.0428061	-0.0320138	3	6.36243	13	1.37039e-06
2	0	0	0	1	625.535	-0.0876013	-0.0881837	-0.0295864	3	6.36229	13	2.60904e-06
2	0	0	1	1	630.036	-0.132612	-0.133102	-0.0278533	3	6.36216	13	3.70732e-06
2	0	0	0	1	633.529	-0.16757	-0.167856	-0.0252834	3	6.36207	13	4.24395e-06