Folder: EC-Lab-Processing/Data_Lola/CoNiFeNx_400ºC_24h_13102022/Electrodes_20012023/Set 2

File: 2023_01_23_CoNiFeNx_400ºC_24h_electrode1__set2_20012023_1_01_CV_C01.mpt
EC-Lab ASCII FILE
Nb header lines : 57

Cyclic Voltammetry

Run on channel : 1 (SN 21648)
User :
CE vs. WE compliance from -10 V to 10 V
Electrode connection : standard
Potential control : Ewe
Ewe ctrl range : min = -2.50 V, max = 2.50 V
Safety Limits :
	Do not start on E overload
Acquisition started on : 01/23/2023 11:53:57.913
Loaded Setting File :  C:\Users\grupogalan\Documents\EC-Lab\Data\Lole Jurado\2023_01_20_CoNiFeNx_400ºC_24h_electrode2_19012023_1.mps
Saved on :
	File : 2023_01_23_CoNiFeNx_400ºC_24h_electrode1__set2_20012023_1_01_CV_C01.mpr
	Directory : C:\Users\grupogalan\Documents\EC-Lab\Data\Lole Jurado\
	Host : 169.254.104.159
Device : VSP (SN 1176)
Address : USB
EC-Lab for windows v11.46 (software)
Internet server v11.40 (firmware)
Command interpretor v11.40 (firmware)
Electrode material :
Initial state :
Electrolyte :
Comments :
Electrode surface area : 0.000 cm²
Characteristic mass : 0.001 g
Equivalent Weight : 0.000 g/eq.
Density : 0.000 g/cm3
Volume (V) : 0.001 cm³
Cycle Definition : Charge/Discharge alternance
Ei (V)              0.000
vs.                 Eoc
dE/dt               10.000
dE/dt unit          mV/s
E1 (V)              1.000
vs.                 Ref
Step percent        50
N                   10
E range min (V)     -2.500
E range max (V)     2.500
I Range             Auto
I Range min         Unset
I Range max         Unset
I Range init        Unset
Bandwidth           5
E2 (V)              0.000
vs.                 Ref
nc cycles           2
Reverse Scan        1
Ef (V)              0.000
vs.                 Eoc

mode	ox/red	error	control changes	counter inc.	time/s	control/V	Ewe/V	<I>/mA	cycle number	(Q-Qo)/C	I Range	P/W
2	0	0	0	0	0.000000000000000E+000	-0.091002	-0.0921973	-0.00113689	1	0.0000000E+000	13	1.04818e-07
2	1	0	1	0	4.3552	-0.0474512	-0.0462323	0.00197762	1	7.26248e-06	13	-9.14301e-08
2	1	0	1	0	8.7552	-0.00345038	-0.00317686	0.00310489	1	2.0205e-05	13	-9.86379e-09
2	1	0	0	0	13.1554	0.0405504	0.0386279	0.00453599	1	3.8829e-05	13	1.75216e-07
2	1	0	0	0	17.5554	0.0845513	0.0834951	0.00616913	1	6.42003e-05	13	5.15092e-07
2	1	0	1	0	21.9556	0.128552	0.128418	0.00895814	1	9.90423e-05	13	1.15039e-06
2	1	0	1	0	26.3556	0.172553	0.172414	0.0149016	1	0.000153326	13	2.56924e-06
2	1	0	1	0	30.7556	0.216554	0.2152	0.0204148	1	0.000235166	13	4.39326e-06
2	1	0	0	0	35.1558	0.260555	0.26139	0.0259861	1	0.000340653	13	6.79249e-06
2	1	0	0	0	39.5558	0.304555	0.303096	0.0349652	1	0.000477384	13	1.05978e-05
2	1	0	1	0	43.956	0.348556	0.348135	0.0528477	1	0.00067124	13	1.83981e-05
2	1	0	1	0	48.386	0.392857	0.394855	0.0888961	1	0.000983076	12	3.5101e-05
2	1	0	1	0	52.786	0.436858	0.437545	0.148549	1	0.00149934	12	6.49969e-05
2	1	0	0	0	57.1862	0.480859	0.479454	0.250546	1	0.00236672	12	0.000120125
2	1	0	0	0	61.5862	0.524859	0.524211	0.373083	1	0.00374535	12	0.000195574
2	1	0	1	0	65.9864	0.56886	0.570038	0.518327	1	0.00570665	12	0.000295466
2	1	0	1	0	70.3864	0.612861	0.61363	0.763614	1	0.00845841	12	0.000468577
2	1	0	0	0	74.8166	0.657162	0.65618	1.82839	1	0.0136307	11	0.00119975
2	1	0	0	0	79.2166	0.701163	0.700762	5.06358	1	0.0278947	11	0.00354836
2	1	0	0	0	83.6166	0.745163	0.744833	10.6851	1	0.0617488	11	0.0079586
2	1	0	1	0	88.0468	0.789464	0.789831	18.4383	1	0.125671	10	0.0145632
2	1	0	1	0	92.4468	0.833465	0.833539	27.7328	1	0.226812	10	0.0231164
2	1	0	0	0	96.847	0.877466	0.878167	38.2721	1	0.37164	10	0.0336093
2	1	0	0	0	101.247	0.921467	0.921426	50.0431	1	0.565276	10	0.046111
2	1	0	0	0	105.647	0.965468	0.965015	62.651	1	0.812784	10	0.0604592
2	1	0	1	0	109.958	0.991468	0.991849	70.0463	1	1.10878	10	0.0694753
2	1	0	0	0	114.358	0.947467	0.94624	55.6362	1	1.38454	10	0.0526452
2	1	0	0	0	118.758	0.903466	0.901927	43.018	1	1.60082	10	0.0387991
2	1	0	1	0	123.158	0.859466	0.860415	31.6999	1	1.76439	10	0.027275
2	1	0	1	0	127.558	0.815465	0.816288	22.1422	1	1.88214	10	0.0180744
2	1	0	1	0	131.958	0.771464	0.770787	14.3297	1	1.96165	10	0.0110452
2	1	0	0	0	136.358	0.727463	0.727535	8.26963	1	2.01068	10	0.00601645
2	1	0	0	0	140.788	0.683162	0.682547	3.97294	1	2.03711	11	0.00271172
2	1	0	1	0	145.188	0.639162	0.637184	1.43112	1	2.04839	11	0.000911888
2	1	0	1	0	149.618	0.594861	0.594986	0.305508	1	2.05178	12	0.000181773
2	1	0	1	0	154.018	0.55086	0.549411	-0.00826357	1	2.05226	12	-4.5401e-06
2	0	0	0	0	158.419	0.506859	0.504915	-0.0799884	1	2.05201	12	-4.03874e-05
2	0	0	0	0	162.819	0.462858	0.463537	-0.101113	1	2.0516	12	-4.68694e-05
2	0	0	1	0	167.219	0.418857	0.42063	-0.107539	1	2.05113	12	-4.5234e-05
2	0	0	1	0	171.619	0.374857	0.37594	-0.108856	1	2.05064	12	-4.09235e-05
2	0	0	0	0	176.019	0.330856	0.330809	-0.108344	1	2.05016	12	-3.58412e-05
2	0	0	0	0	180.419	0.286855	0.285808	-0.099545	1	2.04969	12	-2.84507e-05
2	0	0	0	0	184.819	0.242854	0.242925	-0.0845445	1	2.04928	12	-2.0538e-05
2	0	0	1	0	189.219	0.198853	0.198959	-0.0698193	1	2.04894	12	-1.38912e-05
2	0	0	1	0	193.619	0.154853	0.155034	-0.0562439	1	2.04866	12	-8.71974e-06
2	0	0	0	0	198.019	0.110852	0.110944	-0.0464163	1	2.04844	12	-5.1496e-06
2	0	0	0	0	202.419	0.0668509	0.0660268	-0.0392651	1	2.04825	12	-2.59255e-06
2	0	0	0	0	206.819	0.0228501	0.0215213	-0.0345383	1	2.04808	12	-7.43311e-07
2	0	0	1	1	211.06	0.0195509	0.0197103	-0.0250992	2	2.04795	12	-4.94712e-07
2	0	0	0	1	215.46	0.0635509	0.0623365	-0.0177657	2	2.04786	12	-1.10745e-06
2	0	0	0	1	219.86	0.107552	0.108357	-0.0127391	2	2.0478	12	-1.38036e-06
2	1	0	1	1	224.26	0.151553	0.152143	-0.00793526	2	2.04775	12	-1.20729e-06
2	1	0	1	1	228.66	0.195553	0.195517	-0.00222462	2	2.04773	12	-4.34951e-07
2	1	0	0	1	233.061	0.239554	0.240691	0.00591007	2	2.04774	12	1.4225e-06
2	1	0	0	1	237.461	0.283555	0.28488	0.0180991	2	2.0478	12	5.15606e-06
2	1	0	0	1	241.861	0.327556	0.328335	0.0382449	2	2.04792	12	1.25571e-05
2	1	0	1	1	246.261	0.371557	0.371182	0.0667421	2	2.04815	12	2.47735e-05
2	1	0	1	1	250.661	0.415557	0.417269	0.110824	2	2.04854	12	4.62435e-05
2	1	0	0	1	255.061	0.459558	0.459742	0.155829	2	2.04914	12	7.1641e-05
2	1	0	0	1	259.461	0.503559	0.502153	0.197738	2	2.04992	12	9.92946e-05
2	1	0	1	1	263.861	0.54756	0.54847	0.244821	2	2.0509	12	0.000134277
2	1	0	1	1	268.261	0.591561	0.593092	0.351615	2	2.05217	12	0.00020854
2	1	0	1	1	272.676	0.635711	0.634884	1.00804	2	2.05479	12	0.000639991
2	1	0	0	1	277.091	0.679862	0.681377	3.32368	2	2.0636	11	0.00226468
2	1	0	0	1	281.491	0.723863	0.723583	7.83197	2	2.08736	11	0.00566709
2	1	0	1	1	285.922	0.768164	0.766794	14.5739	2	2.13625	10	0.0111752
2	1	0	1	1	290.322	0.812165	0.811016	23.2056	2	2.21871	10	0.0188201
2	1	0	1	1	294.722	0.856166	0.85674	33.4438	2	2.34288	10	0.0286526
2	1	0	0	1	299.122	0.900166	0.901231	44.8054	2	2.51468	10	0.04038
2	1	0	0	1	303.522	0.944167	0.945509	57.4583	2	2.73981	10	0.0543273
2	1	0	1	1	307.922	0.988168	0.987109	71.8103	2	3.02499	10	0.0708846
2	1	0	1	1	312.162	0.969467	0.968062	64.494	2	3.32573	10	0.0624342
2	1	0	0	1	316.563	0.925467	0.926728	50.4184	2	3.57783	10	0.0467241
2	1	0	0	1	320.963	0.881466	0.882929	38.1485	2	3.772	10	0.0336824
2	1	0	1	1	325.363	0.837465	0.837566	27.4272	2	3.91556	10	0.0229721
2	1	0	1	1	329.763	0.793464	0.794276	18.433	2	4.01573	10	0.0146409
2	1	0	0	1	334.163	0.749464	0.749134	11.2946	2	4.08042	10	0.00846116
2	1	0	0	1	338.563	0.705463	0.705285	6.04487	2	4.11784	10	0.00426335
2	1	0	0	1	342.993	0.661162	0.661698	2.56818	2	4.13622	11	0.00169936
2	1	0	1	1	347.393	0.617161	0.617688	0.759345	2	4.14299	11	0.000469038
[...]
2	0	0	1	1	395.824	0.132852	0.134088	-0.055927	2	4.1406	12	-7.49914e-06
2	0	0	0	1	400.224	0.0888513	0.0888051	-0.0468446	2	4.14037	12	-4.16003e-06
2	0	0	0	1	404.624	0.0448505	0.0440525	-0.0400419	2	4.14018	12	-1.76395e-06
2	0	0	1	1	409.024	0.000849706	0.000983299	-0.035522	2	4.14001	12	-3.49287e-08
2	1	0	0	0	413.265	0.0415505	0.0419947	-0.0218269	3	4.1399	12	-9.16613e-07
2	0	0	0	0	417.665	0.0855513	0.0840254	-0.0166463	3	4.13981	12	-1.39871e-06
2	0	0	1	0	422.065	0.129552	0.129135	-0.0120571	3	4.13975	12	-1.557e-06
2	0	0	1	0	426.465	0.173553	0.172828	-0.0072459	3	4.13971	12	-1.2523e-06
2	1	0	1	0	430.865	0.217554	0.218144	-0.000596306	3	4.1397	12	-1.30081e-07
2	1	0	0	0	435.265	0.261555	0.262269	0.00937582	3	4.13972	12	2.45899e-06
2	1	0	0	0	439.665	0.305555	0.305396	0.025731	3	4.1398	12	7.85816e-06
2	1	0	1	0	444.066	0.349556	0.348774	0.049658	3	4.13996	12	1.73194e-05
2	1	0	1	0	448.466	0.393557	0.393352	0.084843	3	4.14026	12	3.33731e-05
2	1	0	1	0	452.866	0.437558	0.435366	0.132795	3	4.14074	12	5.78143e-05
2	1	0	0	0	457.266	0.481559	0.48038	0.173175	3	4.14143	12	8.31898e-05
2	1	0	0	0	461.666	0.525559	0.524038	0.210898	3	4.14228	12	0.000110519
2	1	0	1	0	466.066	0.56956	0.56832	0.264104	3	4.14332	12	0.000150096
2	1	0	1	0	470.466	0.613561	0.612917	0.530503	3	4.1449	12	0.000325155
2	1	0	0	0	474.896	0.657862	0.658784	1.88153	3	4.14965	11	0.00123952
2	1	0	0	0	479.296	0.701863	0.700871	5.21684	3	4.16447	11	0.00365633
2	1	0	0	0	483.711	0.746014	0.745008	10.88	3	4.19912	11	0.0081057
2	1	0	1	0	488.126	0.790164	0.789178	18.7684	3	4.26379	10	0.0148117
2	1	0	1	0	492.526	0.834165	0.834912	28.6564	3	4.36752	10	0.0239256
2	1	0	0	0	496.927	0.878166	0.879386	40.1845	3	4.51849	10	0.0353376
2	1	0	0	0	501.327	0.922167	0.923123	53.283	3	4.72409	10	0.0491868
2	1	0	0	0	505.727	0.966168	0.965306	67.602	3	4.98956	10	0.0652566
2	1	0	1	0	509.967	0.991468	0.990679	74.7288	3	5.30124	10	0.0740322
2	1	0	0	0	514.367	0.947467	0.947062	59.2348	3	5.59567	10	0.056099
2	1	0	0	0	518.767	0.903466	0.904566	45.4378	3	5.82496	10	0.0411015
2	1	0	1	0	523.168	0.859466	0.86035	33.6246	3	5.9978	10	0.0289289
2	1	0	1	0	527.568	0.815465	0.815086	23.2269	3	6.12207	10	0.0189319
2	1	0	1	0	531.968	0.771464	0.77015	14.7826	3	6.20486	10	0.0113848
2	1	0	0	0	536.368	0.727463	0.727491	8.3772	3	6.25498	10	0.00609434
2	1	0	0	0	540.798	0.683162	0.684106	3.9806	3	6.28162	11	0.00272315
2	1	0	1	0	545.198	0.639162	0.637493	1.4475	3	6.29293	11	0.000922768
2	1	0	1	0	549.628	0.594861	0.593525	0.317834	3	6.29641	12	0.000188643
2	1	0	1	0	554.028	0.55086	0.550514	-0.0135973	3	6.29689	12	-7.48549e-06
2	0	0	0	0	558.428	0.506859	0.50851	-0.0895646	3	6.29661	12	-4.55445e-05
2	0	0	0	0	562.828	0.462858	0.463546	-0.110042	3	6.29616	12	-5.10096e-05
2	0	0	1	0	567.228	0.418857	0.416801	-0.116048	3	6.29565	12	-4.83689e-05
2	0	0	1	0	571.628	0.374857	0.374074	-0.11831	3	6.29512	12	-4.42568e-05
2	0	0	0	0	576.029	0.330856	0.3309	-0.117605	3	6.2946	12	-3.89154e-05
2	0	0	0	0	580.429	0.286855	0.285484	-0.108871	3	6.29409	12	-3.10809e-05
2	0	0	0	0	584.829	0.242854	0.242372	-0.093704	3	6.29364	12	-2.27112e-05
2	0	0	1	0	589.229	0.198853	0.198756	-0.0782544	3	6.29326	12	-1.55535e-05
2	0	0	1	0	593.629	0.154853	0.155316	-0.0641467	3	6.29295	12	-9.96298e-06
2	0	0	0	0	598.029	0.110852	0.109905	-0.0525829	3	6.29269	12	-5.77914e-06
2	0	0	0	0	602.429	0.0668509	0.0668308	-0.044799	3	6.29247	12	-2.99395e-06
2	0	0	0	0	606.829	0.0228501	0.0240448	-0.0399657	3	6.29228	12	-9.60969e-07
2	0	0	0	1	611.07	-0.0195507	-0.0204055	-0.0354131	3	6.29212	12	7.2262e-07
2	0	0	0	1	615.47	-0.0635515	-0.0628839	-0.0322752	3	6.29197	12	2.02959e-06
2	0	0	0	1	618.228	-0.091202	-0.0900017	-0.0354978	3	6.29188	12	3.19486e-06

File: 2023_01_23_CoNiFeNx_400ºC_24h_electrode1__set2_20012023_1_03_CP_C01.mpt
EC-Lab ASCII FILE
Nb header lines : 52

Chronopotentiometry

Run on channel : 1 (SN 21648)
User :
CE vs. WE compliance from -10 V to 10 V
Electrode connection : standard
Potential control : Ewe
Ewe ctrl range : min = -2.50 V, max = 2.50 V
Safety Limits :
	Do not start on E overload
Acquisition started on : 01/23/2023 11:53:57.913
Loaded Setting File :  C:\Users\grupogalan\Documents\EC-Lab\Data\Lole Jurado\2023_01_20_CoNiFeNx_400ºC_24h_electrode2_19012023_1.mps
Saved on :
	File : 2023_01_23_CoNiFeNx_400ºC_24h_electrode1__set2_20012023_1_03_CP_C01.mpr
	Directory : C:\Users\grupogalan\Documents\EC-Lab\Data\Lole Jurado\
	Host : 169.254.104.159
Device : VSP (SN 1176)
Address : USB
EC-Lab for windows v11.46 (software)
Internet server v11.40 (firmware)
Command interpretor v11.40 (firmware)
Electrode material :
Initial state :
Electrolyte :
Comments :
Electrode surface area : 0.000 cm²
Characteristic mass : 0.001 g
Equivalent Weight : 0.000 g/eq.
Density : 0.000 g/cm3
Volume (V) : 0.001 cm³
Cycle Definition : Charge/Discharge alternance
Is                  10.000
unit Is             mA
vs.                 <None>
ts (h:m:s)          2:00:0.0000
EM (V)              pass
dQM                 20.000
unit dQM            mA.h
record              <Ewe>
dEs (mV)            0.00
dts (s)             1.0000
E range min (V)     -2.500
E range max (V)     2.500
I Range             10 mA
Bandwidth           5
goto Ns'            0
nc cycles           0

mode	ox/red	error	control changes	Ns changes	counter inc.	Ns	time/s	control/mA	<Ewe>/V	I/mA	dQ/C	(Q-Qo)/C	half cycle	Q charge/discharge/mA.h	I Range	Energy charge/W.h	Energy discharge/W.h	Capacitance charge/µF	Capacitance discharge/µF	Q discharge/mA.h	Q charge/mA.h	Capacity/mA.h	Efficiency/%	cycle number	P/W
1	1	0	1	0	0	0	679.184	10	0.752204	9.99948	0.00947621	0.00947621	0	0.00263228	11	1.98001e-06	0.000000000000000E+000	0.000000000000000E+000	0.000000000000000E+000	0.000000000000000E+000	0.00263228	0.00263228	0.0000000E+000	0.000000000000000E+000	0.00752165
1	1	0	1	0	0	0	843.184	10	0.752458	9.99973	1.64951	1.64951	0	0.458197	11	0.000345069	0.000000000000000E+000	6.5085e+09	0.000000000000000E+000	0.000000000000000E+000	0.458197	0.458197	0.0000000E+000	0.000000000000000E+000	0.00752438
1	1	0	1	0	0	0	1007.18	10	0.75354	9.9998	3.28953	3.28953	0	0.913759	11	0.000688077	0.000000000000000E+000	2.46347e+09	0.000000000000000E+000	0.000000000000000E+000	0.913759	0.913759	0.0000000E+000	0.000000000000000E+000	0.00753524
1	1	0	1	0	0	0	1171.18	10	0.754899	9.99954	4.92956	4.92956	0	1.36932	11	0.00103162	0.000000000000000E+000	1.82917e+09	0.000000000000000E+000	0.000000000000000E+000	1.36932	1.36932	0.0000000E+000	0.000000000000000E+000	0.00754865
1	1	0	1	0	0	0	1335.18	10	0.757129	10.0004	6.56959	6.56959	0	1.82489	11	0.00137604	0.000000000000000E+000	1.33413e+09	0.000000000000000E+000	0.000000000000000E+000	1.82489	1.82489	0.0000000E+000	0.000000000000000E+000	0.00757156
1	1	0	1	0	0	0	1499.18	10	0.759637	10.0006	8.20963	8.20963	0	2.28045	11	0.00172151	0.000000000000000E+000	1.10447e+09	0.000000000000000E+000	0.000000000000000E+000	2.28045	2.28045	0.0000000E+000	0.000000000000000E+000	0.0075968
1	1	0	1	0	0	0	1663.18	10	0.762602	10.0004	9.84966	9.84966	0	2.73602	11	0.00206829	0.000000000000000E+000	9.47283e+08	0.000000000000000E+000	0.000000000000000E+000	2.73602	2.73602	0.0000000E+000	0.000000000000000E+000	0.00762635
1	1	0	1	0	0	0	1827.18	10	0.766149	10.0007	11.4897	11.4897	0	3.19158	11	0.00241651	0.000000000000000E+000	8.23926e+08	0.000000000000000E+000	0.000000000000000E+000	3.19158	3.19158	0.0000000E+000	0.000000000000000E+000	0.00766202
1	1	0	1	0	0	0	1991.18	10	0.769342	10.0001	13.1297	13.1297	0	3.64714	11	0.00276622	0.000000000000000E+000	7.66136e+08	0.000000000000000E+000	0.000000000000000E+000	3.64714	3.64714	0.0000000E+000	0.000000000000000E+000	0.00769351
1	1	0	1	0	0	0	2155.18	10	0.77302	10.0002	14.7698	14.7698	0	4.10271	11	0.00311763	0.000000000000000E+000	7.09536e+08	0.000000000000000E+000	0.000000000000000E+000	4.10271	4.10271	0.0000000E+000	0.000000000000000E+000	0.00773039
1	1	0	1	0	0	0	2319.18	10	0.776832	10.0004	16.4098	16.4098	0	4.55827	11	0.0034707	0.000000000000000E+000	6.66319e+08	0.000000000000000E+000	0.000000000000000E+000	4.55827	4.55827	0.0000000E+000	0.000000000000000E+000	0.00776865
1	1	0	1	0	0	0	2483.18	10	0.780283	10.0006	18.0498	18.0498	0	5.01384	11	0.00382546	0.000000000000000E+000	6.42836e+08	0.000000000000000E+000	0.000000000000000E+000	5.01384	5.01384	0.0000000E+000	0.000000000000000E+000	0.00780331
1	1	0	1	0	0	0	2647.18	10	0.783941	9.99992	19.6899	19.6899	0	5.4694	11	0.00418184	0.000000000000000E+000	6.20411e+08	0.000000000000000E+000	0.000000000000000E+000	5.4694	5.4694	0.0000000E+000	0.000000000000000E+000	0.00783935
1	1	0	1	0	0	0	2811.18	10	0.786053	9.99992	21.3299	21.3299	0	5.92497	11	0.00453931	0.000000000000000E+000	6.30159e+08	0.000000000000000E+000	0.000000000000000E+000	5.92497	5.92497	0.0000000E+000	0.000000000000000E+000	0.00786047
1	1	0	1	0	0	0	2975.18	10	0.78932	9.9991	22.9699	22.9699	0	6.38053	11	0.00489817	0.000000000000000E+000	6.18875e+08	0.000000000000000E+000	0.000000000000000E+000	6.38053	6.38053	0.0000000E+000	0.000000000000000E+000	0.00789249
1	1	0	1	0	0	0	3139.18	10	0.792525	10.0004	24.61	24.61	0	6.8361	11	0.00525851	0.000000000000000E+000	6.10357e+08	0.000000000000000E+000	0.000000000000000E+000	6.8361	6.8361	0.0000000E+000	0.000000000000000E+000	0.00792554
1	1	0	1	0	0	0	3303.18	10	0.795452	10	26.25	26.25	0	7.29166	11	0.00562019	0.000000000000000E+000	6.06967e+08	0.000000000000000E+000	0.000000000000000E+000	7.29166	7.29166	0.0000000E+000	0.000000000000000E+000	0.00795456
1	1	0	1	0	0	0	3467.18	10	0.798448	10	27.89	27.89	0	7.74723	11	0.00598323	0.000000000000000E+000	6.03114e+08	0.000000000000000E+000	0.000000000000000E+000	7.74723	7.74723	0.0000000E+000	0.000000000000000E+000	0.00798452
1	1	0	1	0	0	0	3631.18	10	0.801168	10.0006	29.53	29.53	0	8.20279	11	0.0063476	0.000000000000000E+000	6.03102e+08	0.000000000000000E+000	0.000000000000000E+000	8.20279	8.20279	0.0000000E+000	0.000000000000000E+000	0.00801213
1	1	0	1	0	0	0	3795.18	10	0.804143	10.0003	31.1701	31.1701	0	8.65835	11	0.00671324	0.000000000000000E+000	6.00132e+08	0.000000000000000E+000	0.000000000000000E+000	8.65835	8.65835	0.0000000E+000	0.000000000000000E+000	0.00804167
1	1	0	1	0	0	0	3959.18	10	0.806446	10.0007	32.8101	32.8101	0	9.11392	11	0.0070801	0.000000000000000E+000	6.04889e+08	0.000000000000000E+000	0.000000000000000E+000	9.11392	9.11392	0.0000000E+000	0.000000000000000E+000	0.00806506
1	1	0	1	0	0	0	4123.18	10	0.809116	9.99922	34.4501	34.4501	0	9.56948	11	0.00744812	0.000000000000000E+000	6.05323e+08	0.000000000000000E+000	0.000000000000000E+000	9.56948	9.56948	0.0000000E+000	0.000000000000000E+000	0.00809054
1	1	0	1	0	0	0	4287.18	10	0.811397	9.99999	36.0901	36.0901	0	10.025	11	0.00781732	0.000000000000000E+000	6.09702e+08	0.000000000000000E+000	0.000000000000000E+000	10.025	10.025	0.0000000E+000	0.000000000000000E+000	0.00811396
1	1	0	1	0	0	0	4451.18	10	0.814333	9.9998	37.7302	37.7302	0	10.4806	11	0.00818759	0.000000000000000E+000	6.07291e+08	0.000000000000000E+000	0.000000000000000E+000	10.4806	10.4806	0.0000000E+000	0.000000000000000E+000	0.00814316
[...]
1	1	0	1	0	0	0	5435.18	10	0.828839	10.0004	47.5704	47.5704	0	13.214	11	0.0104339	0.000000000000000E+000	6.20746e+08	0.000000000000000E+000	0.000000000000000E+000	13.214	13.214	0.0000000E+000	0.000000000000000E+000	0.00828869
1	1	0	1	0	0	0	5599.18	10	0.831276	10.0002	49.2104	49.2104	0	13.6696	11	0.010812	0.000000000000000E+000	6.22351e+08	0.000000000000000E+000	0.000000000000000E+000	13.6696	13.6696	0.0000000E+000	0.000000000000000E+000	0.00831296
1	1	0	1	0	0	0	5763.18	10	0.833541	10.0013	50.8504	50.8504	0	14.1251	11	0.0111912	0.000000000000000E+000	6.25185e+08	0.000000000000000E+000	0.000000000000000E+000	14.1251	14.1251	0.0000000E+000	0.000000000000000E+000	0.00833646
1	1	0	1	0	0	0	5927.18	10	0.83592	10.0001	52.4905	52.4905	0	14.5807	11	0.0115714	0.000000000000000E+000	6.27012e+08	0.000000000000000E+000	0.000000000000000E+000	14.5807	14.5807	0.0000000E+000	0.000000000000000E+000	0.00835929
1	1	0	1	0	0	0	6091.18	10	0.838058	10.0004	54.1305	54.1305	0	15.0362	11	0.0119527	0.000000000000000E+000	6.30496e+08	0.000000000000000E+000	0.000000000000000E+000	15.0362	15.0362	0.0000000E+000	0.000000000000000E+000	0.00838094
1	1	0	1	0	0	0	6255.18	10	0.840077	9.99954	55.7705	55.7705	0	15.4918	11	0.012335	0.000000000000000E+000	6.34676e+08	0.000000000000000E+000	0.000000000000000E+000	15.4918	15.4918	0.0000000E+000	0.000000000000000E+000	0.00840038
1	1	0	1	0	0	0	6419.18	10	0.841845	10.0004	57.4106	57.4106	0	15.9474	11	0.0127182	0.000000000000000E+000	6.40452e+08	0.000000000000000E+000	0.000000000000000E+000	15.9474	15.9474	0.0000000E+000	0.000000000000000E+000	0.00841881
1	1	0	1	0	0	0	6583.18	10	0.843855	9.99954	59.0506	59.0506	0	16.4029	11	0.0131022	0.000000000000000E+000	6.44301e+08	0.000000000000000E+000	0.000000000000000E+000	16.4029	16.4029	0.0000000E+000	0.000000000000000E+000	0.00843816
1	1	0	1	0	0	0	6747.18	10	0.845823	10.0005	60.6906	60.6906	0	16.8585	11	0.0134871	0.000000000000000E+000	6.48271e+08	0.000000000000000E+000	0.000000000000000E+000	16.8585	16.8585	0.0000000E+000	0.000000000000000E+000	0.00845865
1	1	0	1	0	0	0	6911.18	10	0.847907	9.99973	62.3307	62.3307	0	17.3141	11	0.0138728	0.000000000000000E+000	6.51292e+08	0.000000000000000E+000	0.000000000000000E+000	17.3141	17.3141	0.0000000E+000	0.000000000000000E+000	0.00847885
1	1	0	1	0	0	0	7075.18	10	0.849648	10.0006	63.9707	63.9707	0	17.7696	11	0.0142595	0.000000000000000E+000	6.56492e+08	0.000000000000000E+000	0.000000000000000E+000	17.7696	17.7696	0.0000000E+000	0.000000000000000E+000	0.008497
1	1	0	1	0	0	0	7239.18	10	0.850977	10.0013	65.6107	65.6107	0	18.2252	11	0.0146468	0.000000000000000E+000	6.64262e+08	0.000000000000000E+000	0.000000000000000E+000	18.2252	18.2252	0.0000000E+000	0.000000000000000E+000	0.00851083
1	1	0	1	0	0	0	7403.18	10	0.852786	9.99992	67.2508	67.2508	0	18.6808	11	0.0150349	0.000000000000000E+000	6.68616e+08	0.000000000000000E+000	0.000000000000000E+000	18.6808	18.6808	0.0000000E+000	0.000000000000000E+000	0.0085278
1	1	0	1	0	0	0	7567.18	10	0.854159	10.0007	68.8908	68.8908	0	19.1363	11	0.0154237	0.000000000000000E+000	6.757e+08	0.000000000000000E+000	0.000000000000000E+000	19.1363	19.1363	0.0000000E+000	0.000000000000000E+000	0.00854218
1	1	0	1	0	0	0	7731.18	10	0.855898	9.99942	70.5308	70.5308	0	19.5919	11	0.0158132	0.000000000000000E+000	6.80186e+08	0.000000000000000E+000	0.000000000000000E+000	19.5919	19.5919	0.0000000E+000	0.000000000000000E+000	0.00855848
1	1	0	1	0	0	0	7878.24	10	0.857721	10.0005	72.0014	72.0014	0	20.0004	11	0.0161631	0.000000000000000E+000	6.82368e+08	0.000000000000000E+000	0.000000000000000E+000	20.0004	20.0004	0.0000000E+000	0.000000000000000E+000	0.00857764