Folder: EC-Lab-Processing/Data_Lola/CoNiFeNx_400ºC_24h_13102022/Electrodes_20012023/Set 2 (part 3)

File: 2023_01_23_CoNiFeNx_400ºC_24h_electrode2_set2_20012023_1_03_CP_C02.mpt
EC-Lab ASCII FILE
Nb header lines : 52

Chronopotentiometry

Run on channel : 2 (SN 12477)
User :
CE vs. WE compliance from -10 V to 10 V
Electrode connection : standard
Potential control : Ewe
Ewe ctrl range : min = -2.50 V, max = 2.50 V
Safety Limits :
	Do not start on E overload
Acquisition started on : 01/23/2023 12:38:23.307
Loaded Setting File :  C:\Users\grupogalan\Documents\EC-Lab\Data\Lole Jurado\2023_01_23_CoNiFeNx_400ºC_24h_electrode1__set2_20012023_1.mps
Saved on :
	File : 2023_01_23_CoNiFeNx_400ºC_24h_electrode2_set2_20012023_1_03_CP_C02.mpr
	Directory : C:\Users\grupogalan\Documents\EC-Lab\Data\Lole Jurado\
	Host : 169.254.104.159
Device : VSP (SN 1176)
Address : USB
EC-Lab for windows v11.46 (software)
Internet server v11.40 (firmware)
Command interpretor v11.40 (firmware)
Electrode material :
Initial state :
Electrolyte :
Comments :
Electrode surface area : 0.000 cm²
Characteristic mass : 0.001 g
Equivalent Weight : 0.000 g/eq.
Density : 0.000 g/cm3
Volume (V) : 0.001 cm³
Cycle Definition : Charge/Discharge alternance
Is                  10.000
unit Is             mA
vs.                 <None>
ts (h:m:s)          2:00:0.0000
EM (V)              pass
dQM                 20.000
unit dQM            mA.h
record              <Ewe>
dEs (mV)            0.00
dts (s)             1.0000
E range min (V)     -2.500
E range max (V)     2.500
I Range             10 mA
Bandwidth           5
goto Ns'            0
nc cycles           0

mode	ox/red	error	control changes	Ns changes	counter inc.	Ns	time/s	control/mA	<Ewe>/V	I/mA	dQ/C	(Q-Qo)/C	half cycle	Q charge/discharge/mA.h	I Range	Energy charge/W.h	Energy discharge/W.h	Capacitance charge/µF	Capacitance discharge/µF	Q discharge/mA.h	Q charge/mA.h	Capacity/mA.h	Efficiency/%	cycle number	P/W
1	1	0	1	0	0	0	2063.26	10	0.736139	10.0014	0.00947723	0.00947723	0	0.00263256	11	1.93793e-06	0.000000000000000E+000	0.000000000000000E+000	0.000000000000000E+000	0.000000000000000E+000	0.00263256	0.00263256	0.0000000E+000	0.000000000000000E+000	0.0073624
1	1	0	1	0	0	0	2227.26	10	0.770765	10.0009	1.6497	1.6497	0	0.458249	11	0.000352947	0.000000000000000E+000	4.76438e+07	0.000000000000000E+000	0.000000000000000E+000	0.458249	0.458249	0.0000000E+000	0.000000000000000E+000	0.00770831
1	1	0	1	0	0	0	2391.26	10	0.772535	10.0009	3.28992	3.28992	0	0.913866	11	0.000704535	0.000000000000000E+000	9.03924e+07	0.000000000000000E+000	0.000000000000000E+000	0.913866	0.913866	0.0000000E+000	0.000000000000000E+000	0.00772602
1	1	0	1	0	0	0	2555.26	10	0.774437	10.0016	4.93014	4.93014	0	1.36948	11	0.00105695	0.000000000000000E+000	1.28731e+08	0.000000000000000E+000	0.000000000000000E+000	1.36948	1.36948	0.0000000E+000	0.000000000000000E+000	0.00774563
1	1	0	1	0	0	0	2719.26	10	0.776669	10.0019	6.57036	6.57036	0	1.8251	11	0.00141029	0.000000000000000E+000	1.62112e+08	0.000000000000000E+000	0.000000000000000E+000	1.8251	1.8251	0.0000000E+000	0.000000000000000E+000	0.00776815
1	1	0	1	0	0	0	2883.26	10	0.779002	10.0007	8.21058	8.21058	0	2.28072	11	0.00176466	0.000000000000000E+000	1.91556e+08	0.000000000000000E+000	0.000000000000000E+000	2.28072	2.28072	0.0000000E+000	0.000000000000000E+000	0.00779054
1	1	0	1	0	0	0	3047.26	10	0.781536	10.0014	9.8508	9.8508	0	2.73633	11	0.00212015	0.000000000000000E+000	2.16995e+08	0.000000000000000E+000	0.000000000000000E+000	2.73633	2.73633	0.0000000E+000	0.000000000000000E+000	0.00781647
1	1	0	1	0	0	0	3211.26	10	0.783997	10.0021	11.491	11.491	0	3.19195	11	0.00247683	0.000000000000000E+000	2.40108e+08	0.000000000000000E+000	0.000000000000000E+000	3.19195	3.19195	0.0000000E+000	0.000000000000000E+000	0.00784159
1	1	0	1	0	0	0	3375.26	10	0.786698	10.0017	13.1312	13.1312	0	3.64756	11	0.00283466	0.000000000000000E+000	2.59725e+08	0.000000000000000E+000	0.000000000000000E+000	3.64756	3.64756	0.0000000E+000	0.000000000000000E+000	0.00786835
1	1	0	1	0	0	0	3539.26	10	0.789406	10.0011	14.7714	14.7714	0	4.10318	11	0.00319371	0.000000000000000E+000	2.77312e+08	0.000000000000000E+000	0.000000000000000E+000	4.10318	4.10318	0.0000000E+000	0.000000000000000E+000	0.00789494
1	1	0	1	0	0	0	3703.26	10	0.79174	10.0007	16.4117	16.4117	0	4.5588	11	0.00355391	0.000000000000000E+000	2.95173e+08	0.000000000000000E+000	0.000000000000000E+000	4.5588	4.5588	0.0000000E+000	0.000000000000000E+000	0.00791797
1	1	0	1	0	0	0	3867.26	10	0.7942	10.0013	18.0519	18.0519	0	5.01441	11	0.00391521	0.000000000000000E+000	3.10916e+08	0.000000000000000E+000	0.000000000000000E+000	5.01441	5.01441	0.0000000E+000	0.000000000000000E+000	0.00794303
1	1	0	1	0	0	0	4031.26	10	0.796448	10.0011	19.6921	19.6921	0	5.47003	11	0.00427756	0.000000000000000E+000	3.26521e+08	0.000000000000000E+000	0.000000000000000E+000	5.47003	5.47003	0.0000000E+000	0.000000000000000E+000	0.00796537
1	1	0	1	0	0	0	4195.26	10	0.798736	10.0014	21.3323	21.3323	0	5.92565	11	0.00464094	0.000000000000000E+000	3.4079e+08	0.000000000000000E+000	0.000000000000000E+000	5.92565	5.92565	0.0000000E+000	0.000000000000000E+000	0.00798845
1	1	0	1	0	0	0	4359.26	10	0.800693	10.0013	22.9726	22.9726	0	6.38126	11	0.00500532	0.000000000000000E+000	3.55868e+08	0.000000000000000E+000	0.000000000000000E+000	6.38126	6.38126	0.0000000E+000	0.000000000000000E+000	0.00800797
1	1	0	1	0	0	0	4523.26	10	0.802649	10.0015	24.6128	24.6128	0	6.83688	11	0.00537058	0.000000000000000E+000	3.70061e+08	0.000000000000000E+000	0.000000000000000E+000	6.83688	6.83688	0.0000000E+000	0.000000000000000E+000	0.00802769
1	1	0	1	0	0	0	4687.26	10	0.804633	10.0019	26.253	26.253	0	7.2925	11	0.00573674	0.000000000000000E+000	3.83293e+08	0.000000000000000E+000	0.000000000000000E+000	7.2925	7.2925	0.0000000E+000	0.000000000000000E+000	0.00804789
1	1	0	1	0	0	0	4851.26	10	0.806502	10.0012	27.8932	27.8932	0	7.74811	11	0.00610377	0.000000000000000E+000	3.96422e+08	0.000000000000000E+000	0.000000000000000E+000	7.74811	7.74811	0.0000000E+000	0.000000000000000E+000	0.00806602
1	1	0	1	0	0	0	5015.26	10	0.808314	10.0016	29.5334	29.5334	0	8.20373	11	0.00647163	0.000000000000000E+000	4.09191e+08	0.000000000000000E+000	0.000000000000000E+000	8.20373	8.20373	0.0000000E+000	0.000000000000000E+000	0.00808445
1	1	0	1	0	0	0	5179.26	10	0.809986	10.0014	31.1736	31.1736	0	8.65935	11	0.0068403	0.000000000000000E+000	4.22138e+08	0.000000000000000E+000	0.000000000000000E+000	8.65935	8.65935	0.0000000E+000	0.000000000000000E+000	0.00810102
1	1	0	1	0	0	0	5343.26	10	0.811831	10.0014	32.8139	32.8139	0	9.11496	11	0.00720976	0.000000000000000E+000	4.33518e+08	0.000000000000000E+000	0.000000000000000E+000	9.11496	9.11496	0.0000000E+000	0.000000000000000E+000	0.00811942
1	1	0	1	0	0	0	5507.26	10	0.813461	10.0017	34.4541	34.4541	0	9.57058	11	0.00758001	0.000000000000000E+000	4.45594e+08	0.000000000000000E+000	0.000000000000000E+000	9.57058	9.57058	0.0000000E+000	0.000000000000000E+000	0.00813598
1	1	0	1	0	0	0	5671.26	10	0.815114	10.0007	36.0943	36.0943	0	10.0262	11	0.007951	0.000000000000000E+000	4.57035e+08	0.000000000000000E+000	0.000000000000000E+000	10.0262	10.0262	0.0000000E+000	0.000000000000000E+000	0.00815174
1	1	0	1	0	0	0	5835.26	10	0.816745	10.0019	37.7345	37.7345	0	10.4818	11	0.00832275	0.000000000000000E+000	4.68139e+08	0.000000000000000E+000	0.000000000000000E+000	10.4818	10.4818	0.0000000E+000	0.000000000000000E+000	0.00816898
[...]
1	1	0	1	0	0	0	6819.26	10	0.825371	10.0014	47.5758	47.5758	0	13.2155	11	0.0105674	0.000000000000000E+000	5.33173e+08	0.000000000000000E+000	0.000000000000000E+000	13.2155	13.2155	0.0000000E+000	0.000000000000000E+000	0.00825489
1	1	0	1	0	0	0	6983.26	10	0.826706	10.0014	49.2161	49.2161	0	13.6711	11	0.0109437	0.000000000000000E+000	5.43424e+08	0.000000000000000E+000	0.000000000000000E+000	13.6711	13.6711	0.0000000E+000	0.000000000000000E+000	0.00826824
1	1	0	1	0	0	0	7147.26	10	0.828056	10.0016	50.8563	50.8563	0	14.1267	11	0.0113207	0.000000000000000E+000	5.53287e+08	0.000000000000000E+000	0.000000000000000E+000	14.1267	14.1267	0.0000000E+000	0.000000000000000E+000	0.0082819
1	1	0	1	0	0	0	7311.26	10	0.8293	10.0011	52.4965	52.4965	0	14.5824	11	0.0116983	0.000000000000000E+000	5.63506e+08	0.000000000000000E+000	0.000000000000000E+000	14.5824	14.5824	0.0000000E+000	0.000000000000000E+000	0.00829392
1	1	0	1	0	0	0	7475.26	10	0.8307	10.0014	54.1367	54.1367	0	15.038	11	0.0120764	0.000000000000000E+000	5.72507e+08	0.000000000000000E+000	0.000000000000000E+000	15.038	15.038	0.0000000E+000	0.000000000000000E+000	0.00830814
1	1	0	1	0	0	0	7639.26	10	0.831992	10.0007	55.7769	55.7769	0	15.4936	11	0.0124552	0.000000000000000E+000	5.81902e+08	0.000000000000000E+000	0.000000000000000E+000	15.4936	15.4936	0.0000000E+000	0.000000000000000E+000	0.00832053
1	1	0	1	0	0	0	7803.26	10	0.833344	10.0015	57.4172	57.4172	0	15.9492	11	0.0128346	0.000000000000000E+000	5.90681e+08	0.000000000000000E+000	0.000000000000000E+000	15.9492	15.9492	0.0000000E+000	0.000000000000000E+000	0.00833469
1	1	0	1	0	0	0	7967.26	10	0.834714	10.001	59.0574	59.0574	0	16.4048	11	0.0132146	0.000000000000000E+000	5.9911e+08	0.000000000000000E+000	0.000000000000000E+000	16.4048	16.4048	0.0000000E+000	0.000000000000000E+000	0.00834797
1	1	0	1	0	0	0	8131.26	10	0.836092	10.001	60.6976	60.6976	0	16.8604	11	0.0135952	0.000000000000000E+000	6.07264e+08	0.000000000000000E+000	0.000000000000000E+000	16.8604	16.8604	0.0000000E+000	0.000000000000000E+000	0.0083618
1	1	0	1	0	0	0	8295.26	10	0.837468	10.0011	62.3378	62.3378	0	17.3161	11	0.0139765	0.000000000000000E+000	6.15204e+08	0.000000000000000E+000	0.000000000000000E+000	17.3161	17.3161	0.0000000E+000	0.000000000000000E+000	0.00837561
1	1	0	1	0	0	0	8459.26	10	0.838947	10.001	63.978	63.978	0	17.7717	11	0.0143583	0.000000000000000E+000	6.2231e+08	0.000000000000000E+000	0.000000000000000E+000	17.7717	17.7717	0.0000000E+000	0.000000000000000E+000	0.00839035
1	1	0	1	0	0	0	8623.26	10	0.840253	10.0019	65.6183	65.6183	0	18.2273	11	0.0147409	0.000000000000000E+000	6.30258e+08	0.000000000000000E+000	0.000000000000000E+000	18.2273	18.2273	0.0000000E+000	0.000000000000000E+000	0.0084041
1	1	0	1	0	0	0	8787.26	10	0.841699	10.0016	67.2585	67.2585	0	18.6829	11	0.015124	0.000000000000000E+000	6.37158e+08	0.000000000000000E+000	0.000000000000000E+000	18.6829	18.6829	0.0000000E+000	0.000000000000000E+000	0.00841836
1	1	0	1	0	0	0	8951.26	10	0.843137	10.0014	68.8987	68.8987	0	19.1385	11	0.0155079	0.000000000000000E+000	6.43926e+08	0.000000000000000E+000	0.000000000000000E+000	19.1385	19.1385	0.0000000E+000	0.000000000000000E+000	0.00843252
1	1	0	1	0	0	0	9115.26	10	0.84441	10.001	70.5389	70.5389	0	19.5941	11	0.0158923	0.000000000000000E+000	6.51505e+08	0.000000000000000E+000	0.000000000000000E+000	19.5941	19.5941	0.0000000E+000	0.000000000000000E+000	0.00844499
1	1	0	1	0	0	0	9262.31	10	0.845517	10.0019	72.0097	72.0097	0	20.0027	11	0.0162375	0.000000000000000E+000	6.5836e+08	0.000000000000000E+000	0.000000000000000E+000	20.0027	20.0027	0.0000000E+000	0.000000000000000E+000	0.00845675

File: 2023_01_23_CoNiFeNx_400ºC_24h_electrode2_set2_20012023_C05.mpt
EC-Lab ASCII FILE
Nb header lines : 64

Potentio Electrochemical Impedance Spectroscopy

Run on channel : 5 (SN 30436)
User :
CE vs. WE compliance from -10 V to 10 V
Electrode connection : standard
Potential control : Ewe
Ewe ctrl range : min = -2.50 V, max = 2.50 V
Safety Limits :
	Do not start on E overload
Acquisition started on : 01/23/2023 12:34:32.134
Loaded Setting File :  NONE
Saved on :
	File : 2023_01_23_CoNiFeNx_400ºC_24h_electrode2_set2_20012023_C05.mpr
	Directory : C:\Users\grupogalan\Documents\EC-Lab\Data\Lole Jurado\
	Host : 169.254.104.159
Device : VSP (SN 1176)
Address : USB
EC-Lab for windows v11.46 (software)
Internet server v11.40 (firmware)
Command interpretor v11.40 (firmware)
Electrode material :
Initial state :
Electrolyte :
Comments :
Electrode surface area : 0.001 cm²
Characteristic mass : 0.001 g
Equivalent Weight : 0.000 g/eq.
Density : 0.000 g/cm3
Volume (V) : 0.001 cm³
Record Ece
Cycle Definition : Charge/Discharge alternance
Mode                Single sine
E (V)               0.0000
vs.                 Eoc
tE (h:m:s)          0:00:0.0000
record              0
dI                  0.000
unit dI             mA
dt (s)              0.000
fi                  200.000
unit fi             kHz
ff                  100.000
unit ff             mHz
Nd                  6
Points              per decade
spacing             Logarithmic
Va (mV)             10.0
pw                  0.10
Na                  2
corr                0
E range min (V)     -2.500
E range max (V)     2.500
I Range             Auto
Bandwidth           5
nc cycles           0
goto Ns'            0
nr cycles           0
inc. cycle          0

freq/Hz	Re(Z)/Ohm	-Im(Z)/Ohm	|Z|/Ohm	Phase(Z)/deg	time/s	<Ewe>/V	<I>/mA	Cs/µF	Cp/µF	cycle number	I Range	|Ewe|/V	|I|/A	Ns	(Q-Qo)/mA.h	<Ece>/V	|Ece|/V	Phase(Zce)/deg	|Zce|/Ohm	Re(Zce)/Ohm	-Im(Zce)/Ohm	Phase(Zwe-ce)/deg	|Zwe-ce|/Ohm	Re(Zwe-ce)/Ohm	-Im(Zwe-ce)/Ohm	Re(Y)/Ohm-1	Im(Y)/Ohm-1	|Y|/Ohm-1	Phase(Y)/deg	dq/mA.h
199998	1.62826	-1.67002	2.33243	45.7254	2.42753	-0.170191	-0.111927	-0.47651	-0.244287	1	9	0.00805625	0.00345402	0	-2.51556e-05	0.0998125	0.00142195	-99.8585	0.411679	-0.0704859	0.4056	39.0657	2.00635	1.55777	-1.26442	0.299301	-0.306978	0.428738	-45.7254	-2.51556e-05
91291.2	0.921544	-0.361303	0.98984	21.4083	3.30351	-0.170782	-0.154451	-4.82524	-0.642884	1	9	0.0102259	0.0103309	0	-5.33502e-05	0.117443	0.00699276	14.4323	0.676878	0.655518	-0.168703	18.576	1.66374	1.57706	-0.530006	0.940559	-0.368758	1.01026	-21.4083	-2.69095e-05
41669.8	0.893872	0.0202598	0.894102	-1.2984	4.17955	-0.170653	-0.134177	188.523	0.0967968	1	9	0.00937366	0.0104839	0	-6.08886e-05	0.102754	0.00713475	8.7218	0.680544	0.672675	-0.103196	3.03051	1.56874	1.56655	-0.0829358	1.11815	0.0253432	1.11844	1.2984	2.05709e-05
19020.9	0.909734	0.263035	0.946997	-16.1264	4.93353	-0.170404	-0.253067	31.8108	2.45417	1	9	0.0110423	0.0116603	0	-0.000138719	0.106785	0.00806983	3.73041	0.692078	0.690612	-0.0450279	-7.75737	1.61513	1.60035	0.218007	1.01442	0.293303	1.05597	16.1264	-7.54182e-05
8684.68	0.997832	0.583239	1.15578	-30.3066	5.56555	-0.170488	-0.115318	31.421	8.00128	1	9	0.0108339	0.00937367	0	-0.000163085	0.102964	0.0063298	2.24123	0.675275	0.674758	-0.0264079	-18.4134	1.76284	1.67259	0.556832	0.746971	0.43661	0.865213	30.3066	-1.56118e-05
3960.08	1.03448	1.08828	1.5015	-46.4518	6.12184	-0.17063	-0.210505	36.9298	19.4002	1	9	0.0092294	0.00614679	0	-0.000194595	0.120729	0.00413654	-4.15788	0.672959	0.671188	0.0487929	-33.6891	2.04994	1.70567	1.13707	0.458851	0.482714	0.666001	46.4518	-1.91376e-05
1808.26	1.23081	2.14883	2.47637	-60.1967	7.20205	-0.17033	-0.159409	40.9596	30.8412	1	9	0.00970749	0.00392005	0	-0.000242685	0.102544	0.00322059	-12.6466	0.821567	0.801635	0.179871	-48.8862	3.09091	2.03245	2.32871	0.200707	0.350407	0.403817	60.1967	-2.33659e-05
825.264	1.53228	4.37681	4.63728	-70.7053	8.33583	-0.170453	-0.0242822	44.0626	39.2517	1	10	0.00967582	0.00208653	0	-0.000262193	0.100443	0.00171858	-16.2685	0.823653	0.790674	0.230737	-63.2444	5.16	2.32296	4.60754	0.0712546	0.203531	0.215644	70.7053	-4.63717e-06
377.051	2.63117	9.51404	9.87117	-74.5409	9.22579	-0.170398	-0.0256206	44.3665	41.2142	1	10	0.00997149	0.00101016	0	-0.000267787	0.102735	0.000799444	-13.7729	0.791402	0.768647	0.188413	-70.6891	10.2809	3.39982	9.70246	0.0270029	0.0976399	0.101305	74.5409	-3.8855e-06
172.037	4.10901	18.967	19.407	-77.7764	10.1125	-0.170464	-0.0234956	48.7752	46.5887	1	10	0.00955844	0.000492525	0	-0.000273782	0.10327	0.000672638	-26.8589	1.36569	1.21836	0.617013	-74.7823	20.2957	5.32738	19.584	0.0109099	0.0503596	0.0515278	77.7764	-3.39961e-06
78.5176	8.38194	37.694	38.6147	-77.4632	11.2476	-0.170234	-0.00224891	53.775	51.2412	1	11	0.00943379	0.000244305	0	-0.000276276	0.106918	0.000397921	-18.993	1.62878	1.54011	0.530093	-75.4486	39.4909	9.92205	38.2241	0.00562132	0.0252794	0.0258968	77.4632	-4.76596e-07
35.8372	13.8914	77.2441	78.4833	-79.8051	12.1452	-0.17083	-0.00249944	57.4938	55.6927	1	11	0.00951894	0.000121286	0	-0.000276782	0.102086	0.000504307	-68.4743	4.15799	1.52565	3.86798	-79.2381	82.5643	15.417	81.1121	0.00225523	0.0125404	0.0127416	79.8051	-1.41318e-07
16.367	39.2696	151.257	156.272	-75.4461	13.2411	-0.170838	-0.00038103	64.2889	60.2292	1	12	0.00962868	6.16151e-05	0	-0.000277743	0.100557	0.000446073	-34.149	7.23968	5.99142	4.06397	-73.7537	161.781	45.261	155.321	0.00160804	0.00619378	0.00639911	75.4461	-7.25206e-07
7.46893	86.409	284.88	297.696	-73.1265	13.9547	-0.170558	-0.00148903	74.7997	68.4978	1	12	0.00972035	3.26519e-05	0	-0.000277746	0.101264	0.000809073	-95.9694	24.7788	-2.57694	24.6444	-74.8455	320.676	83.8321	309.524	0.000975016	0.00321451	0.00335913	73.1265	-2.78973e-07
3.4086	187.252	494.06	528.354	-69.243	15.0384	-0.170376	0.000221819	94.5073	82.6369	1	12	0.00923791	1.74843e-05	0	-0.000277835	0.11752	0.000585099	72.8262	33.4642	9.88103	-31.9721	-66.8962	502.38	197.133	462.087	0.000670773	0.00176982	0.00189267	69.243	3.62523e-08
1.55627	423.062	926.525	1018.54	-65.458	17.8259	-0.170273	-0.000114872	110.377	91.3339	1	13	0.00931814	9.1485e-06	0	-0.000277758	0.102009	0.000149289	-108.654	16.3185	-5.21961	15.4612	-66.0791	1030.5	417.843	941.986	0.000407799	0.000893096	0.000981795	65.458	-3.75604e-08
0.710357	931.275	1614.96	1864.24	-60.0299	24.2791	-0.170172	8.42909e-05	138.733	104.113	1	14	0.00948878	5.0899e-06	0	-0.000278145	0.0998889	0.000217836	-33.621	42.7977	35.6384	23.6969	-59.4567	1902.66	966.913	1638.66	0.000267964	0.000464687	0.000536413	60.0299	-1.72707e-07
0.324439	2056.28	2501.27	3238	-50.5765	35.1792	-0.170379	9.41053e-05	196.122	117.029	1	14	0.00950012	2.93394e-06	0	-0.000278029	0.106059	0.000112695	-20.4638	38.4108	35.9869	13.429	-50.239	3271.29	2092.27	2514.7	0.000196123	0.000238565	0.000308832	50.5765	1.46781e-07
0.147897	3982.91	2956.08	4960.04	-36.5825	59.0482	-0.170337	6.95965e-05	364.036	129.303	1	14	0.00949311	1.91392e-06	0	-0.000277013	0.103461	0.000141688	-88.8265	74.0303	1.51618	74.0148	-37.2524	5005.72	3984.43	3030.1	0.000161894	0.000120156	0.000201611	36.5825	6.4201e-07
0.0999041	5048.69	2722.42	5735.92	-28.335	80.1206	-0.170377	4.93793e-05	585.17	131.821	1	14	0.00945696	1.64873e-06	0	-0.000276231	0.102105	4.41524e-05	-91.1401	26.7797	-0.532843	26.7744	-28.5724	5748.21	5048.16	2749.19	0.000153452	8.27462e-05	0.00017434	28.335	7.813e-07